workerid,proliferate.condition,audio,block_order,button_pressed,correct_response,group,internal_node_id,key_press,match_sel,mismatch_sel,normed_midpoint,path,repetition,responses,rt,step,stimulus,test_part,time_elapsed,trial_index,trial_type,type,visual_target,voiced_sel,voiceless_sel,vowel,yes_side,error
17,condition1,,,0,,,0.0-0.0,,,,,,,,18725.050000008196,,"<div class =""irb""><img src=""imgs/SUSig_2color_Stree_Stacked_Left.png"" alt=""Stanford University Logo"" class=""logo""><p id=""legal""><font size=""3"">We invite you to participate in a research study on language production and comprehension. Your experimenter will ask you to do a linguistic task such as reading sentences or words, naming pictures or describing scenes, making up sentences of your own, or participating in a simple language game. <br><br>There are no risks or benefits of any kind involved in this study. <br><br>You will be paid for your participation at the posted rate.<br><br>If you have read this form and have decided to participate in this experiment, please understand your participation is voluntary and you have the right to withdraw your consent or discontinue participation at anytime without penalty or loss of benefits to which you are otherwise entitled. You have the right to refuse to do particular tasks. Your individual privacy will be maintained in all published and written data resulting from the study. You may print this form for your records.<br><br>CONTACT INFORMATION: If you have any questions, concerns or complaints about this research study, its procedures, risks and benefits, you should contact the Protocol Director Meghan Sumner at (650)-725-9336. If you are not satisfied with how this study is being conducted, or if you have any concerns, complaints, or general questions about the research or your rights as a participant, please contact the Stanford Institutional Review Board (IRB) to speak to someone independent of the research team at (650)-723-2480 or toll free at 1-866-680-2906. You can also write to the Stanford IRB, Stanford University, 3000 El Camino Real, Five Palo Alto Square, 4th Floor, Palo Alto, CA 94306 USA.<br><br>If you agree to participate, please proceed to the study tasks.</font></p></div>",,18781,0,html-button-response,,,,,,,
17,condition1,,,,,,0.0-1.0,32,,,,,,,7833.515000063926,,"<div class=""gen_ins""><p>In this experiment, you will hear recordings and will make simple decisions about them.<br><br>IMPORTANT: Please only accept this task if you are listening through headphones and working in a quiet environment.<br><br>Press the space bar to continue.</p></div>",,26618,1,html-keyboard-response,,,,,,,
17,condition1,,,,,,0.0-2.0,32,,,,,,,4293.82500005886,,"<div class=""spec_ins""><p>This experiment has two parts. In this first part, you will see a printed word, and then hear a spoken word.  Sometimes the printed and spoken words will be the same (see FASHION; hear <em>fashion</em>); other times the printed and spoken words will be different (see FASHION; hear <em>turkey</em>).<br><br>YOUR JOB: Decide whether the printed and spoken words are DIFFERENT or the SAME.<br><br>To do this, place your fingers on the S and K keys. If the words are DIFFERENT press the S key, and if the words are the SAME, press the K key.<br><br>Please answer as quickly and accurately as possible.<br><br>A response cannot be made until the audio has played entirely. Once a selection is made, the slide will advance after a brief pause. If no response is made after several seconds, the slide will advance automatically.<br><br>Please press the space bar to begin.</p></div>",,30913,2,html-keyboard-response,,,,,,,
17,condition1,Harmony,GD,,no,b_group,0.0-3.0,,SAME,DIFFERENT,NA,audio/filler/Harmony_1.wav,NA,,,NA,audio/filler/Harmony_1.wav,exposure,34933,3,audio-keyboard-response,fill_word,Habitat,NA,NA,NA,RIGHT,
17,condition1,Violin,GD,,yes,b_group,0.0-4.0,,SAME,DIFFERENT,NA,audio/filler/Violin_1.wav,NA,,,NA,audio/filler/Violin_1.wav,exposure,39946,4,audio-keyboard-response,fill_word,Violin,NA,NA,NA,RIGHT,
17,condition1,Aisle,GD,,no,b_group,0.0-5.0,,SAME,DIFFERENT,NA,audio/filler/Aisle_1.wav,NA,,,NA,audio/filler/Aisle_1.wav,exposure,44973,5,audio-keyboard-response,fill_word,Outfit,NA,NA,NA,RIGHT,
17,condition1,Real,GD,,yes,b_group,0.0-6.0,,SAME,DIFFERENT,NA,audio/filler/Real_1.wav,NA,,,NA,audio/filler/Real_1.wav,exposure,49988,6,audio-keyboard-response,fill_word,Real,NA,NA,NA,RIGHT,
17,condition1,Narrow,GD,,no,b_group,0.0-7.0,83,SAME,DIFFERENT,NA,audio/filler/Narrow_1.wav,NA,,3160,NA,audio/filler/Narrow_1.wav,exposure,54154,7,audio-keyboard-response,fill_word,Ankle,NA,NA,NA,RIGHT,
17,condition1,Premier,GD,,yes,b_group,0.0-8.0,75,SAME,DIFFERENT,NA,audio/unambiguous_p/Bremier_Premier_2_00.wav,NA,,1360,0,audio/unambiguous_p/Bremier_Premier_2_00.wav,exposure,56522,8,audio-keyboard-response,crit_unamb,Premier,NA,NA,NA,RIGHT,
17,condition1,Eye,GD,,no,b_group,0.0-9.0,83,SAME,DIFFERENT,NA,audio/filler/Eye_1.wav,NA,,2131,NA,audio/filler/Eye_1.wav,exposure,59666,9,audio-keyboard-response,fill_word,Verdict,NA,NA,NA,RIGHT,
17,condition1,Layer,GD,,yes,b_group,0.0-10.0,75,SAME,DIFFERENT,NA,audio/filler/Layer_1.wav,NA,,1368,NA,audio/filler/Layer_1.wav,exposure,62033,10,audio-keyboard-response,fill_word,Layer,NA,NA,NA,RIGHT,
17,condition1,Prayer,GD,,yes,b_group,0.0-11.0,75,SAME,DIFFERENT,NA,audio/unambiguous_p/Brayer_Prayer_2_00.wav,NA,,3781,0,audio/unambiguous_p/Brayer_Prayer_2_00.wav,exposure,66818,11,audio-keyboard-response,crit_unamb,Prayer,NA,NA,NA,RIGHT,
17,condition1,Parallel,GD,,yes,b_group,0.0-12.0,75,SAME,DIFFERENT,NA,audio/unambiguous_p/Barallel_Parallel_4_00.wav,NA,,1672,0,audio/unambiguous_p/Barallel_Parallel_4_00.wav,exposure,69505,12,audio-keyboard-response,crit_unamb,Parallel,NA,NA,NA,RIGHT,
17,condition1,Planner,GD,,yes,b_group,0.0-13.0,75,SAME,DIFFERENT,NA,audio/unambiguous_p/Blanner_Planner_2_00.wav,NA,,1048,0,audio/unambiguous_p/Blanner_Planner_2_00.wav,exposure,71554,13,audio-keyboard-response,crit_unamb,Planner,NA,NA,NA,RIGHT,
17,condition1,Ruin,GD,,yes,b_group,0.0-14.0,75,SAME,DIFFERENT,NA,audio/filler/Ruin_1.wav,NA,,2072,NA,audio/filler/Ruin_1.wav,exposure,74625,14,audio-keyboard-response,fill_word,Ruin,NA,NA,NA,RIGHT,
17,condition1,Frame,GD,,no,b_group,0.0-15.0,83,SAME,DIFFERENT,NA,audio/filler/Frame_1.wav,NA,,1520,NA,audio/filler/Frame_1.wav,exposure,77146,15,audio-keyboard-response,fill_word,Frown,NA,NA,NA,RIGHT,
17,condition1,Blue,GD,,no,b_group,0.0-16.0,83,SAME,DIFFERENT,NA,audio/ambiguous_b/Blue_Plue_3_17.wav,NA,,1491,17,audio/ambiguous_b/Blue_Plue_3_17.wav,exposure,79649,16,audio-keyboard-response,crit_unamb,Colleague,NA,NA,NA,RIGHT,
17,condition1,Pollen,GD,,yes,b_group,0.0-17.0,75,SAME,DIFFERENT,NA,audio/unambiguous_p/Bollen_Pollen_2_00.wav,NA,,891,0,audio/unambiguous_p/Bollen_Pollen_2_00.wav,exposure,81545,17,audio-keyboard-response,crit_unamb,Pollen,NA,NA,NA,RIGHT,
17,condition1,Parlor,GD,,no,b_group,0.0-18.0,83,SAME,DIFFERENT,NA,audio/unambiguous_p/Barlor_Parlor_4_00.wav,NA,,1792,0,audio/unambiguous_p/Barlor_Parlor_4_00.wav,exposure,84345,18,audio-keyboard-response,crit_unamb,Neutral,NA,NA,NA,RIGHT,
17,condition1,Sailor,GD,,no,b_group,0.0-19.0,83,SAME,DIFFERENT,NA,audio/filler/Sailor_1.wav,NA,,1269,NA,audio/filler/Sailor_1.wav,exposure,86617,19,audio-keyboard-response,fill_word,Mine,NA,NA,NA,RIGHT,
17,condition1,Brain,GD,,yes,b_group,0.0-20.0,75,SAME,DIFFERENT,NA,audio/ambiguous_b/Brain_Prain_3_19.wav,NA,,2888,19,audio/ambiguous_b/Brain_Prain_3_19.wav,exposure,90522,20,audio-keyboard-response,crit_unamb,Brain,NA,NA,NA,RIGHT,
17,condition1,Phenomenon,GD,,no,b_group,0.0-21.0,83,SAME,DIFFERENT,NA,audio/filler/Phenomenon_1.wav,NA,,1501,NA,audio/filler/Phenomenon_1.wav,exposure,93025,21,audio-keyboard-response,fill_word,Replace,NA,NA,NA,RIGHT,
17,condition1,Normal,GD,,no,b_group,0.0-22.0,83,SAME,DIFFERENT,NA,audio/filler/Normal_2.wav,NA,,1461,NA,audio/filler/Normal_2.wav,exposure,95497,22,audio-keyboard-response,fill_word,Nervous,NA,NA,NA,RIGHT,
17,condition1,Billionaire,GD,,yes,b_group,0.0-23.0,75,SAME,DIFFERENT,NA,audio/ambiguous_b/Billionaire_Pillionaire_3_08.wav,NA,,1499,8,audio/ambiguous_b/Billionaire_Pillionaire_3_08.wav,exposure,98009,23,audio-keyboard-response,crit_unamb,Billionaire,NA,NA,NA,RIGHT,
17,condition1,Billion,GD,,no,b_group,0.0-24.0,83,SAME,DIFFERENT,NA,audio/ambiguous_b/Billion_Pillion_3_18.wav,NA,,1389,18,audio/ambiguous_b/Billion_Pillion_3_18.wav,exposure,100409,24,audio-keyboard-response,crit_unamb,Bitter,NA,NA,NA,RIGHT,
17,condition1,Banana,GD,,yes,b_group,0.0-25.0,83,SAME,DIFFERENT,NA,audio/ambiguous_b/Baloney_Paloney_1_10.wav,NA,,1509,10,audio/ambiguous_b/Baloney_Paloney_1_10.wav,exposure,102937,25,audio-keyboard-response,crit_unamb,Banana,NA,NA,NA,RIGHT,
17,condition1,Boom,GD,,yes,b_group,0.0-26.0,75,SAME,DIFFERENT,NA,audio/ambiguous_b/Boom_Poom_1_15.wav,NA,,1280,15,audio/ambiguous_b/Boom_Poom_1_15.wav,exposure,105225,26,audio-keyboard-response,crit_unamb,Boom,NA,NA,NA,RIGHT,
17,condition1,Assume,GD,,yes,b_group,0.0-27.0,75,SAME,DIFFERENT,NA,audio/filler/Assume_1.wav,NA,,1509,NA,audio/filler/Assume_1.wav,exposure,107737,27,audio-keyboard-response,fill_word,Assume,NA,NA,NA,RIGHT,
17,condition1,Famous,GD,,no,b_group,0.0-28.0,83,SAME,DIFFERENT,NA,audio/filler/Famous_1.wav,NA,,1061,NA,audio/filler/Famous_1.wav,exposure,109817,28,audio-keyboard-response,fill_word,Loss,NA,NA,NA,RIGHT,
17,condition1,Name,GD,,no,b_group,0.0-29.0,83,SAME,DIFFERENT,NA,audio/filler/Name_1.wav,NA,,1800,NA,audio/filler/Name_1.wav,exposure,112617,29,audio-keyboard-response,fill_word,Favor,NA,NA,NA,RIGHT,
17,condition1,Arrow,GD,,no,b_group,0.0-30.0,83,SAME,DIFFERENT,NA,audio/filler/Arrow_1.wav,NA,,680,NA,audio/filler/Arrow_1.wav,exposure,114300,30,audio-keyboard-response,fill_word,Ambition,NA,NA,NA,RIGHT,
17,condition1,Burrow,GD,,yes,b_group,0.0-31.0,83,SAME,DIFFERENT,NA,audio/ambiguous_b/Burrow_Purrow_3_09.wav,NA,,880,9,audio/ambiguous_b/Burrow_Purrow_3_09.wav,exposure,116187,31,audio-keyboard-response,crit_unamb,Burrow,NA,NA,NA,RIGHT,
17,condition1,Balloon,GD,,no,b_group,0.0-32.0,83,SAME,DIFFERENT,NA,audio/ambiguous_b/Ballerina_Pallerina_1_15.wav,NA,,979,15,audio/ambiguous_b/Ballerina_Pallerina_1_15.wav,exposure,118171,32,audio-keyboard-response,crit_unamb,Enlarge,NA,NA,NA,RIGHT,
17,condition1,Preliminary,GD,,no,b_group,0.0-33.0,,SAME,DIFFERENT,NA,audio/unambiguous_p/Breliminary_Preliminary_2_00.wav,NA,,,0,audio/unambiguous_p/Breliminary_Preliminary_2_00.wav,exposure,123187,33,audio-keyboard-response,crit_unamb,Temple,NA,NA,NA,RIGHT,
17,condition1,Hill,GD,,yes,b_group,0.0-34.0,75,SAME,DIFFERENT,NA,audio/filler/Hill_1.wav,NA,,2861,NA,audio/filler/Hill_1.wav,exposure,127061,34,audio-keyboard-response,fill_word,Hill,NA,NA,NA,RIGHT,
17,condition1,Hole,GD,,no,b_group,0.0-35.0,83,SAME,DIFFERENT,NA,audio/filler/Hole_1.wav,NA,,1059,NA,audio/filler/Hole_1.wav,exposure,129131,35,audio-keyboard-response,fill_word,Hurl,NA,NA,NA,RIGHT,
17,condition1,Error,GD,,no,b_group,0.0-36.0,83,SAME,DIFFERENT,NA,audio/filler/Error_1.wav,NA,,1219,NA,audio/filler/Error_1.wav,exposure,131371,36,audio-keyboard-response,fill_word,Lonely,NA,NA,NA,RIGHT,
17,condition1,Primal,GD,,yes,b_group,0.0-37.0,75,SAME,DIFFERENT,NA,audio/unambiguous_p/Brimal_Primal_2_00.wav,NA,,968,0,audio/unambiguous_p/Brimal_Primal_2_00.wav,exposure,133355,37,audio-keyboard-response,crit_unamb,Primal,NA,NA,NA,RIGHT,
17,condition1,Polymer,GD,,no,b_group,0.0-38.0,75,SAME,DIFFERENT,NA,audio/unambiguous_p/Bolymer_Polymer_2_00.wav,NA,,931,0,audio/unambiguous_p/Bolymer_Polymer_2_00.wav,exposure,135291,38,audio-keyboard-response,crit_unamb,Pottery,NA,NA,NA,RIGHT,
17,condition1,Pawn,GD,,yes,b_group,0.0-39.0,75,SAME,DIFFERENT,NA,audio/unambiguous_p/Bawn_Pawn_2_00.wav,NA,,939,0,audio/unambiguous_p/Bawn_Pawn_2_00.wav,exposure,137236,39,audio-keyboard-response,crit_unamb,Pawn,NA,NA,NA,RIGHT,
17,condition1,Jewel,GD,,no,b_group,0.0-40.0,83,SAME,DIFFERENT,NA,audio/filler/Jewel_1.wav,NA,,1149,NA,audio/filler/Jewel_1.wav,exposure,139403,40,audio-keyboard-response,fill_word,Tribute,NA,NA,NA,RIGHT,
17,condition1,Barn,GD,,no,b_group,0.0-41.0,83,SAME,DIFFERENT,NA,audio/ambiguous_b/Barn_Parn_1_20.wav,NA,,2560,20,audio/ambiguous_b/Barn_Parn_1_20.wav,exposure,142971,41,audio-keyboard-response,crit_unamb,Bark,NA,NA,NA,RIGHT,
17,condition1,Learning,GD,,yes,b_group,0.0-42.0,75,SAME,DIFFERENT,NA,audio/filler/Learning_1.wav,NA,,1200,NA,audio/filler/Learning_1.wav,exposure,145187,42,audio-keyboard-response,fill_word,Learning,NA,NA,NA,RIGHT,
17,condition1,Low,GD,,yes,b_group,0.0-43.0,83,SAME,DIFFERENT,NA,audio/filler/Low_1.wav,NA,,1320,NA,audio/filler/Low_1.wav,exposure,147515,43,audio-keyboard-response,fill_word,Low,NA,NA,NA,RIGHT,
17,condition1,Soil,GD,,no,b_group,0.0-44.0,83,SAME,DIFFERENT,NA,audio/filler/Soil_1.wav,NA,,2400,NA,audio/filler/Soil_1.wav,exposure,150923,44,audio-keyboard-response,fill_word,Spoil,NA,NA,NA,RIGHT,
17,condition1,Enemy,GD,,no,b_group,0.0-45.0,83,SAME,DIFFERENT,NA,audio/filler/Enemy_1.wav,NA,,1429,NA,audio/filler/Enemy_1.wav,exposure,153362,45,audio-keyboard-response,fill_word,Energy,NA,NA,NA,RIGHT,
17,condition1,Burial,GD,,yes,b_group,0.0-46.0,83,SAME,DIFFERENT,NA,audio/ambiguous_b/Burial_Purial_1_17.wav,NA,,2011,17,audio/ambiguous_b/Burial_Purial_1_17.wav,exposure,156387,46,audio-keyboard-response,crit_unamb,Burial,NA,NA,NA,RIGHT,
17,condition1,Prowl,GD,,yes,b_group,0.0-47.0,75,SAME,DIFFERENT,NA,audio/unambiguous_p/Browl_Prowl_2_00.wav,NA,,1200,0,audio/unambiguous_p/Browl_Prowl_2_00.wav,exposure,158595,47,audio-keyboard-response,crit_unamb,Prowl,NA,NA,NA,RIGHT,
17,condition1,Similar,GD,,no,b_group,0.0-48.0,83,SAME,DIFFERENT,NA,audio/filler/Similar_1.wav,NA,,1629,NA,audio/filler/Similar_1.wav,exposure,161243,48,audio-keyboard-response,fill_word,Seminar,NA,NA,NA,RIGHT,
17,condition1,Ensure,GD,,yes,b_group,0.0-49.0,75,SAME,DIFFERENT,NA,audio/filler/Ensure_1.wav,NA,,1339,NA,audio/filler/Ensure_1.wav,exposure,163602,49,audio-keyboard-response,fill_word,Ensure,NA,NA,NA,RIGHT,
17,condition1,Pioneer,GD,,no,b_group,0.0-50.0,83,SAME,DIFFERENT,NA,audio/unambiguous_p/Bioneer_Pioneer_4_00.wav,NA,,1221,0,audio/unambiguous_p/Bioneer_Pioneer_4_00.wav,exposure,165826,50,audio-keyboard-response,crit_unamb,Pillow,NA,NA,NA,RIGHT,
17,condition1,Horn,GD,,no,b_group,0.0-51.0,83,SAME,DIFFERENT,NA,audio/filler/Horn_1.wav,NA,,1448,NA,audio/filler/Horn_1.wav,exposure,168282,51,audio-keyboard-response,fill_word,Heel,NA,NA,NA,RIGHT,
17,condition1,Benign,GD,,yes,b_group,0.0-52.0,75,SAME,DIFFERENT,NA,audio/ambiguous_b/Benign_Penign_3_14.wav,NA,,1280,14,audio/ambiguous_b/Benign_Penign_3_14.wav,exposure,170579,52,audio-keyboard-response,crit_unamb,Benign,NA,NA,NA,RIGHT,
17,condition1,Ballerina,GD,,yes,b_group,0.0-53.0,83,SAME,DIFFERENT,NA,audio/ambiguous_b/Banana_Panana_3_17.wav,NA,,1568,17,audio/ambiguous_b/Banana_Panana_3_17.wav,exposure,173162,53,audio-keyboard-response,crit_unamb,Ballerina,NA,NA,NA,RIGHT,
17,condition1,Barely,GD,,yes,b_group,0.0-54.0,75,SAME,DIFFERENT,NA,audio/ambiguous_b/Barely_Parely_1_15.wav,NA,,981,15,audio/ambiguous_b/Barely_Parely_1_15.wav,exposure,175156,54,audio-keyboard-response,crit_unamb,Barely,NA,NA,NA,RIGHT,
17,condition1,Reign,GD,,no,b_group,0.0-55.0,83,SAME,DIFFERENT,NA,audio/filler/Reign_1.wav,NA,,1051,NA,audio/filler/Reign_1.wav,exposure,177212,55,audio-keyboard-response,fill_word,Kettle,NA,NA,NA,RIGHT,
17,condition1,Hang,GD,,yes,b_group,0.0-56.0,75,SAME,DIFFERENT,NA,audio/filler/Hang_1.wav,NA,,2269,NA,audio/filler/Hang_1.wav,exposure,180492,56,audio-keyboard-response,fill_word,Hang,NA,NA,NA,RIGHT,
17,condition1,Volume,GD,,no,b_group,0.0-57.0,83,SAME,DIFFERENT,NA,audio/filler/Volume_1.wav,NA,,851,NA,audio/filler/Volume_1.wav,exposure,182348,57,audio-keyboard-response,fill_word,Physical,NA,NA,NA,RIGHT,
17,condition1,Ally,GD,,no,b_group,0.0-58.0,83,SAME,DIFFERENT,NA,audio/filler/Ally_1.wav,NA,,1109,NA,audio/filler/Ally_1.wav,exposure,184460,58,audio-keyboard-response,fill_word,Agile,NA,NA,NA,RIGHT,
17,condition1,Barren,GD,,yes,b_group,0.0-59.0,83,SAME,DIFFERENT,NA,audio/ambiguous_b/Barren_Parren_3_20.wav,NA,,989,20,audio/ambiguous_b/Barren_Parren_3_20.wav,exposure,186452,59,audio-keyboard-response,crit_unamb,Barren,NA,NA,NA,RIGHT,
17,condition1,Jelly,GD,,yes,b_group,0.0-60.0,75,SAME,DIFFERENT,NA,audio/filler/Jelly_2.wav,NA,,1029,NA,audio/filler/Jelly_2.wav,exposure,188492,60,audio-keyboard-response,fill_word,Jelly,NA,NA,NA,RIGHT,
17,condition1,Money,GD,,yes,b_group,0.0-61.0,75,SAME,DIFFERENT,NA,audio/filler/Money_1.wav,NA,,1459,NA,audio/filler/Money_1.wav,exposure,190956,61,audio-keyboard-response,fill_word,Money,NA,NA,NA,RIGHT,
17,condition1,Marine,GD,,no,b_group,0.0-62.0,83,SAME,DIFFERENT,NA,audio/filler/Marine_1.wav,NA,,1389,NA,audio/filler/Marine_1.wav,exposure,193364,62,audio-keyboard-response,fill_word,Mature,NA,NA,NA,RIGHT,
17,condition1,Valley,GD,,no,b_group,0.0-63.0,83,SAME,DIFFERENT,NA,audio/filler/Valley_1.wav,NA,,800,NA,audio/filler/Valley_1.wav,exposure,195172,63,audio-keyboard-response,fill_word,Greeting,NA,NA,NA,RIGHT,
17,condition1,Boil,GD,,yes,b_group,0.0-64.0,75,SAME,DIFFERENT,NA,audio/ambiguous_b/Boil_Poil_1_15.wav,NA,,1699,15,audio/ambiguous_b/Boil_Poil_1_15.wav,exposure,197884,64,audio-keyboard-response,crit_unamb,Boil,NA,NA,NA,RIGHT,
17,condition1,Nun,GD,,yes,b_group,0.0-65.0,75,SAME,DIFFERENT,NA,audio/filler/Nun_1.wav,NA,,2261,NA,audio/filler/Nun_1.wav,exposure,201148,65,audio-keyboard-response,fill_word,Nun,NA,NA,NA,RIGHT,
17,condition1,Rumor,GD,,yes,b_group,0.0-66.0,75,SAME,DIFFERENT,NA,audio/filler/Rumor_1.wav,NA,,1152,NA,audio/filler/Rumor_1.wav,exposure,203308,66,audio-keyboard-response,fill_word,Rumor,NA,NA,NA,RIGHT,
17,condition1,Belly,GD,,no,b_group,0.0-67.0,83,SAME,DIFFERENT,NA,audio/ambiguous_b/Belly_Pelly_3_20.wav,NA,,1520,20,audio/ambiguous_b/Belly_Pelly_3_20.wav,exposure,205836,67,audio-keyboard-response,crit_unamb,Berry,NA,NA,NA,RIGHT,
17,condition1,Arena,GD,,yes,b_group,0.0-68.0,75,SAME,DIFFERENT,NA,audio/filler/Arena_1.wav,NA,,1421,NA,audio/filler/Arena_1.wav,exposure,208268,68,audio-keyboard-response,fill_word,Arena,NA,NA,NA,RIGHT,
17,condition1,Swear,GD,,no,b_group,0.0-69.0,83,SAME,DIFFERENT,NA,audio/filler/Swear_1.wav,NA,,912,NA,audio/filler/Swear_1.wav,exposure,210188,69,audio-keyboard-response,fill_word,Remark,NA,NA,NA,RIGHT,
17,condition1,Failure,GD,,yes,b_group,0.0-70.0,75,SAME,DIFFERENT,NA,audio/filler/Failure_1.wav,NA,,1912,NA,audio/filler/Failure_1.wav,exposure,213108,70,audio-keyboard-response,fill_word,Failure,NA,NA,NA,RIGHT,
17,condition1,Pylon,GD,,yes,b_group,0.0-71.0,75,SAME,DIFFERENT,NA,audio/unambiguous_p/Bylon_Pylon_2_00.wav,NA,,1040,0,audio/unambiguous_p/Bylon_Pylon_2_00.wav,exposure,215156,71,audio-keyboard-response,crit_unamb,Pylon,NA,NA,NA,RIGHT,
17,condition1,Prior,GD,,yes,b_group,0.0-72.0,75,SAME,DIFFERENT,NA,audio/unambiguous_p/Brior_Prior_2_00.wav,NA,,741,0,audio/unambiguous_p/Brior_Prior_2_00.wav,exposure,216909,72,audio-keyboard-response,crit_unamb,Prior,NA,NA,NA,RIGHT,
17,condition1,Roar,GD,,yes,b_group,0.0-73.0,83,SAME,DIFFERENT,NA,audio/filler/Roar_1.wav,NA,,1272,NA,audio/filler/Roar_1.wav,exposure,219196,73,audio-keyboard-response,fill_word,Roar,NA,NA,NA,RIGHT,
17,condition1,Range,GD,,no,b_group,0.0-74.0,83,SAME,DIFFERENT,NA,audio/filler/Range_1.wav,NA,,3051,NA,audio/filler/Range_1.wav,exposure,223252,74,audio-keyboard-response,fill_word,Spirit,NA,NA,NA,RIGHT,
17,condition1,Runner,GD,,no,b_group,0.0-75.0,83,SAME,DIFFERENT,NA,audio/filler/Runner_1.wav,NA,,939,NA,audio/filler/Runner_1.wav,exposure,225204,75,audio-keyboard-response,fill_word,River,NA,NA,NA,RIGHT,
17,condition1,Lawyer,GD,,no,b_group,0.0-76.0,83,SAME,DIFFERENT,NA,audio/filler/Lawyer_1.wav,NA,,1059,NA,audio/filler/Lawyer_1.wav,exposure,227276,76,audio-keyboard-response,fill_word,Advice,NA,NA,NA,RIGHT,
17,condition1,Brown,GD,,yes,b_group,0.0-77.0,75,SAME,DIFFERENT,NA,audio/ambiguous_b/Brown_Prown_3_11.wav,NA,,669,11,audio/ambiguous_b/Brown_Prown_3_11.wav,exposure,228956,77,audio-keyboard-response,crit_unamb,Brown,NA,NA,NA,RIGHT,
17,condition1,Shell,GD,,no,b_group,0.0-78.0,83,SAME,DIFFERENT,NA,audio/filler/Shell_1.wav,NA,,1480,NA,audio/filler/Shell_1.wav,exposure,231435,78,audio-keyboard-response,fill_word,Major,NA,NA,NA,RIGHT,
17,condition1,Royal,GD,,no,b_group,0.0-79.0,83,SAME,DIFFERENT,NA,audio/filler/Royal_1.wav,NA,,1211,NA,audio/filler/Royal_1.wav,exposure,233659,79,audio-keyboard-response,fill_word,Refund,NA,NA,NA,RIGHT,
17,condition1,Plea,GD,,no,b_group,0.0-80.0,83,SAME,DIFFERENT,NA,audio/unambiguous_p/Blea_Plea_2_00.wav,NA,,1589,0,audio/unambiguous_p/Blea_Plea_2_00.wav,exposure,236262,80,audio-keyboard-response,crit_unamb,Pick,NA,NA,NA,RIGHT,
17,condition1,Peninsula,GD,,yes,b_group,0.0-81.0,75,SAME,DIFFERENT,NA,audio/unambiguous_p/Beninsula_Peninsula_2_00.wav,NA,,1200,0,audio/unambiguous_p/Beninsula_Peninsula_2_00.wav,exposure,238470,81,audio-keyboard-response,crit_unamb,Peninsula,NA,NA,NA,RIGHT,
17,condition1,Rally,GD,,no,b_group,0.0-82.0,83,SAME,DIFFERENT,NA,audio/filler/Rally_1.wav,NA,,1480,NA,audio/filler/Rally_1.wav,exposure,240966,82,audio-keyboard-response,fill_word,Knowledge,NA,NA,NA,RIGHT,
17,condition1,Sewer,GD,,no,b_group,0.0-83.0,83,SAME,DIFFERENT,NA,audio/filler/Sewer_1.wav,NA,,2109,NA,audio/filler/Sewer_1.wav,exposure,244078,83,audio-keyboard-response,fill_word,Layout,NA,NA,NA,RIGHT,
17,condition1,Biannual,GD,,yes,b_group,0.0-84.0,75,SAME,DIFFERENT,NA,audio/ambiguous_b/Biannual_Piannual_3_07.wav,NA,,2080,7,audio/ambiguous_b/Biannual_Piannual_3_07.wav,exposure,247158,84,audio-keyboard-response,crit_unamb,Biannual,NA,NA,NA,RIGHT,
17,condition1,Ring,GD,,no,b_group,0.0-85.0,83,SAME,DIFFERENT,NA,audio/filler/Ring_1.wav,NA,,1120,NA,audio/filler/Ring_1.wav,exposure,249286,85,audio-keyboard-response,fill_word,Retreat,NA,NA,NA,RIGHT,
17,condition1,Funnel,GD,,no,b_group,0.0-86.0,83,SAME,DIFFERENT,NA,audio/filler/Funnel_1.wav,NA,,1091,NA,audio/filler/Funnel_1.wav,exposure,251381,86,audio-keyboard-response,fill_word,Deny,NA,NA,NA,RIGHT,
17,condition1,Flower,GD,,no,b_group,0.0-87.0,83,SAME,DIFFERENT,NA,audio/filler/Flower_1.wav,NA,,1539,NA,audio/filler/Flower_1.wav,exposure,253933,87,audio-keyboard-response,fill_word,Flourish,NA,NA,NA,RIGHT,
17,condition1,Main,GD,,no,b_group,0.0-88.0,83,SAME,DIFFERENT,NA,audio/filler/Main_1.wav,NA,,1288,NA,audio/filler/Main_1.wav,exposure,256246,88,audio-keyboard-response,fill_word,Maid,NA,NA,NA,RIGHT,
17,condition1,Aware,GD,,no,b_group,0.0-89.0,83,SAME,DIFFERENT,NA,audio/filler/Aware_1.wav,NA,,2339,NA,audio/filler/Aware_1.wav,exposure,259606,89,audio-keyboard-response,fill_word,Arrest,NA,NA,NA,RIGHT,
17,condition1,Throne,GD,,yes,b_group,0.0-90.0,83,SAME,DIFFERENT,NA,audio/filler/Throne_1.wav,NA,,901,NA,audio/filler/Throne_1.wav,exposure,261509,90,audio-keyboard-response,fill_word,Throne,NA,NA,NA,RIGHT,
17,condition1,Pry,GD,,yes,b_group,0.0-91.0,83,SAME,DIFFERENT,NA,audio/unambiguous_p/Bry_Pry_2_00.wav,NA,,1120,0,audio/unambiguous_p/Bry_Pry_2_00.wav,exposure,263637,91,audio-keyboard-response,crit_unamb,Pry,NA,NA,NA,RIGHT,
17,condition1,Plyer,GD,,yes,b_group,0.0-92.0,75,SAME,DIFFERENT,NA,audio/unambiguous_p/Blyer_Plyer_2_00.wav,NA,,1149,0,audio/unambiguous_p/Blyer_Plyer_2_00.wav,exposure,265797,92,audio-keyboard-response,crit_unamb,Plyer,NA,NA,NA,RIGHT,
17,condition1,Hallway,GD,,no,b_group,0.0-93.0,83,SAME,DIFFERENT,NA,audio/filler/Hallway_1.wav,NA,,1240,NA,audio/filler/Hallway_1.wav,exposure,268045,93,audio-keyboard-response,fill_word,Harvest,NA,NA,NA,RIGHT,
17,condition1,Venue,GD,,no,b_group,0.0-94.0,83,SAME,DIFFERENT,NA,audio/filler/Venue_1.wav,NA,,981,NA,audio/filler/Venue_1.wav,exposure,270030,94,audio-keyboard-response,fill_word,Vessel,NA,NA,NA,RIGHT,
17,condition1,Memory,GD,,yes,b_group,0.0-95.0,75,SAME,DIFFERENT,NA,audio/filler/Memory_1.wav,NA,,2792,NA,audio/filler/Memory_1.wav,exposure,273829,95,audio-keyboard-response,fill_word,Memory,NA,NA,NA,RIGHT,
17,condition1,Area,GD,,no,b_group,0.0-96.0,83,SAME,DIFFERENT,NA,audio/filler/Area_1.wav,NA,,1232,NA,audio/filler/Area_1.wav,exposure,276069,96,audio-keyboard-response,fill_word,Arrogant,NA,NA,NA,RIGHT,
17,condition1,Perform,GD,,yes,b_group,0.0-97.0,75,SAME,DIFFERENT,NA,audio/unambiguous_p/Berform_Perform_2_00.wav,NA,,1168,0,audio/unambiguous_p/Berform_Perform_2_00.wav,exposure,278245,97,audio-keyboard-response,crit_unamb,Perform,NA,NA,NA,RIGHT,
17,condition1,Prime,GD,,yes,b_group,0.0-98.0,75,SAME,DIFFERENT,NA,audio/unambiguous_p/Brime_Prime_2_00.wav,NA,,1120,0,audio/unambiguous_p/Brime_Prime_2_00.wav,exposure,280374,98,audio-keyboard-response,crit_unamb,Prime,NA,NA,NA,RIGHT,
17,condition1,Baloney,GD,,yes,b_group,0.0-99.0,83,SAME,DIFFERENT,NA,audio/ambiguous_b/Balloon_Palloon_3_12.wav,NA,,749,12,audio/ambiguous_b/Balloon_Palloon_3_12.wav,exposure,282133,99,audio-keyboard-response,crit_unamb,Baloney,NA,NA,NA,RIGHT,
17,condition1,Brewery,GD,,yes,b_group,0.0-100.0,75,SAME,DIFFERENT,NA,audio/ambiguous_b/Brewery_Prewery_1_13.wav,NA,,1251,13,audio/ambiguous_b/Brewery_Prewery_1_13.wav,exposure,284381,100,audio-keyboard-response,crit_unamb,Brewery,NA,NA,NA,RIGHT,
17,condition1,Seal,GD,,no,b_group,0.0-101.0,83,SAME,DIFFERENT,NA,audio/filler/Seal_1.wav,NA,,1259,NA,audio/filler/Seal_1.wav,exposure,286653,101,audio-keyboard-response,fill_word,Chorus,NA,NA,NA,RIGHT,
17,condition1,Vary,GD,,yes,b_group,0.0-102.0,75,SAME,DIFFERENT,NA,audio/filler/Vary_1.wav,NA,,1360,NA,audio/filler/Vary_1.wav,exposure,289029,102,audio-keyboard-response,fill_word,Vary,NA,NA,NA,RIGHT,
17,condition1,,,,,,0.0-103.0,32,,,,,,,20410.034999949858,,"<div class=""pre-test-container""><p>Great Job! You finished the first part of the Experiment!<br><br>In the second part of the experiment, you will hear the talker say syllables, like <em>ba</em> or <em>pa</em> Your job is to tell us what the last sound of each syllable is.<br><br> You will hear a lot of syllables that sound quite similar.<br><br>Do your best, and respond as quickly and accurately as you can, identifying the last sound of the syllable.<br><br>Please place your fingers again on the S and K buttons, and follow the prompts to make your choices.<br><br>Press the space bar to continue.</p></div>",,310448,103,html-keyboard-response,,,,,,,
17,condition1,UHB_UHP_5_16,GD,,NA,b_group,0.0-104.0,75,NA,NA,8,audio/syllables/UHB_UHP_5_16.wav,1,,2200,16,audio/syllables/UHB_UHP_5_16.wav,exposure,313663,104,audio-keyboard-response,syllable,NA,B,P,UH,RIGHT,
17,condition1,UHB_UHP_5_25,GD,,NA,b_group,0.0-105.0,75,NA,NA,8,audio/syllables/UHB_UHP_5_25.wav,1,,1592,25,audio/syllables/UHB_UHP_5_25.wav,exposure,316271,105,audio-keyboard-response,syllable,NA,B,P,UH,RIGHT,
17,condition1,UHB_UHP_5_25,GD,,NA,b_group,0.0-106.0,75,NA,NA,8,audio/syllables/UHB_UHP_5_25.wav,3,,760,25,audio/syllables/UHB_UHP_5_25.wav,exposure,318047,106,audio-keyboard-response,syllable,NA,B,P,UH,RIGHT,
17,condition1,AAB_AAP_1_04,GD,,NA,b_group,0.0-107.0,83,NA,NA,11,audio/syllables/AAB_AAP_1_04.wav,3,,1040,4,audio/syllables/AAB_AAP_1_04.wav,exposure,320103,107,audio-keyboard-response,syllable,NA,B,P,AA,RIGHT,
17,condition1,UHB_UHP_5_20,GD,,NA,b_group,0.0-108.0,75,NA,NA,8,audio/syllables/UHB_UHP_5_20.wav,1,,760,20,audio/syllables/UHB_UHP_5_20.wav,exposure,321871,108,audio-keyboard-response,syllable,NA,B,P,UH,RIGHT,
17,condition1,AAB_AAP_1_11,GD,,NA,b_group,0.0-109.0,83,NA,NA,11,audio/syllables/AAB_AAP_1_11.wav,3,,1408,11,audio/syllables/AAB_AAP_1_11.wav,exposure,324287,109,audio-keyboard-response,syllable,NA,B,P,AA,RIGHT,
17,condition1,IHB_IHP_5_00,GD,,NA,b_group,0.0-110.0,75,NA,NA,7,audio/syllables/IHB_IHP_5_00.wav,3,,1531,0,audio/syllables/IHB_IHP_5_00.wav,exposure,326831,110,audio-keyboard-response,syllable,NA,B,P,IH,RIGHT,
17,condition1,IHB_IHP_5_04,GD,,NA,b_group,0.0-111.0,75,NA,NA,7,audio/syllables/IHB_IHP_5_04.wav,2,,1701,4,audio/syllables/IHB_IHP_5_04.wav,exposure,329543,111,audio-keyboard-response,syllable,NA,B,P,IH,RIGHT,
17,condition1,AAB_AAP_1_04,GD,,NA,b_group,0.0-112.0,83,NA,NA,11,audio/syllables/AAB_AAP_1_04.wav,2,,888,4,audio/syllables/AAB_AAP_1_04.wav,exposure,331439,112,audio-keyboard-response,syllable,NA,B,P,AA,RIGHT,
17,condition1,IHB_IHP_5_13,GD,,NA,b_group,0.0-113.0,75,NA,NA,7,audio/syllables/IHB_IHP_5_13.wav,2,,760,13,audio/syllables/IHB_IHP_5_13.wav,exposure,333207,113,audio-keyboard-response,syllable,NA,B,P,IH,RIGHT,
17,condition1,UHB_UHP_5_04,GD,,NA,b_group,0.0-114.0,83,NA,NA,8,audio/syllables/UHB_UHP_5_04.wav,2,,851,4,audio/syllables/UHB_UHP_5_04.wav,exposure,335063,114,audio-keyboard-response,syllable,NA,B,P,UH,RIGHT,
17,condition1,AHB_AHP_3_20,GD,,NA,b_group,0.0-115.0,83,NA,NA,14,audio/syllables/AHB_AHP_3_20.wav,3,,1288,20,audio/syllables/AHB_AHP_3_20.wav,exposure,337359,115,audio-keyboard-response,syllable,NA,B,P,AH,RIGHT,
17,condition1,AHB_AHP_3_07,GD,,NA,b_group,0.0-116.0,83,NA,NA,14,audio/syllables/AHB_AHP_3_07.wav,1,,1789,7,audio/syllables/AHB_AHP_3_07.wav,exposure,340159,116,audio-keyboard-response,syllable,NA,B,P,AH,RIGHT,
17,condition1,AAB_AAP_1_07,GD,,NA,b_group,0.0-117.0,83,NA,NA,11,audio/syllables/AAB_AAP_1_07.wav,1,,901,7,audio/syllables/AAB_AAP_1_07.wav,exposure,342071,117,audio-keyboard-response,syllable,NA,B,P,AA,RIGHT,
17,condition1,IHB_IHP_5_11,GD,,NA,b_group,0.0-118.0,83,NA,NA,7,audio/syllables/IHB_IHP_5_11.wav,2,,1632,11,audio/syllables/IHB_IHP_5_11.wav,exposure,344711,118,audio-keyboard-response,syllable,NA,B,P,IH,RIGHT,
17,condition1,AHB_AHP_3_16,GD,,NA,b_group,0.0-119.0,83,NA,NA,14,audio/syllables/AHB_AHP_3_16.wav,3,,1752,16,audio/syllables/AHB_AHP_3_16.wav,exposure,347471,119,audio-keyboard-response,syllable,NA,B,P,AH,RIGHT,
17,condition1,AAB_AAP_1_30,GD,,NA,b_group,0.0-120.0,75,NA,NA,11,audio/syllables/AAB_AAP_1_30.wav,2,,960,30,audio/syllables/AAB_AAP_1_30.wav,exposure,349447,120,audio-keyboard-response,syllable,NA,B,P,AA,RIGHT,
17,condition1,AAB_AAP_1_00,GD,,NA,b_group,0.0-121.0,83,NA,NA,11,audio/syllables/AAB_AAP_1_00.wav,1,,939,0,audio/syllables/AAB_AAP_1_00.wav,exposure,351407,121,audio-keyboard-response,syllable,NA,B,P,AA,RIGHT,
17,condition1,UHB_UHP_5_00,GD,,NA,b_group,0.0-122.0,83,NA,NA,8,audio/syllables/UHB_UHP_5_00.wav,1,,1080,0,audio/syllables/UHB_UHP_5_00.wav,exposure,353503,122,audio-keyboard-response,syllable,NA,B,P,UH,RIGHT,
17,condition1,IHB_IHP_5_09,GD,,NA,b_group,0.0-123.0,75,NA,NA,7,audio/syllables/IHB_IHP_5_09.wav,3,,819,9,audio/syllables/IHB_IHP_5_09.wav,exposure,355335,123,audio-keyboard-response,syllable,NA,B,P,IH,RIGHT,
17,condition1,AHB_AHP_3_04,GD,,NA,b_group,0.0-124.0,83,NA,NA,14,audio/syllables/AHB_AHP_3_04.wav,2,,1120,4,audio/syllables/AHB_AHP_3_04.wav,exposure,357464,124,audio-keyboard-response,syllable,NA,B,P,AH,RIGHT,
17,condition1,IHB_IHP_5_16,GD,,NA,b_group,0.0-125.0,75,NA,NA,7,audio/syllables/IHB_IHP_5_16.wav,2,,1771,16,audio/syllables/IHB_IHP_5_16.wav,exposure,360232,125,audio-keyboard-response,syllable,NA,B,P,IH,RIGHT,
17,condition1,AHB_AHP_3_09,GD,,NA,b_group,0.0-126.0,83,NA,NA,14,audio/syllables/AHB_AHP_3_09.wav,3,,1200,9,audio/syllables/AHB_AHP_3_09.wav,exposure,362432,126,audio-keyboard-response,syllable,NA,B,P,AH,RIGHT,
17,condition1,UHB_UHP_5_16,GD,,NA,b_group,0.0-127.0,75,NA,NA,8,audio/syllables/UHB_UHP_5_16.wav,3,,1259,16,audio/syllables/UHB_UHP_5_16.wav,exposure,364696,127,audio-keyboard-response,syllable,NA,B,P,UH,RIGHT,
17,condition1,IHB_IHP_5_09,GD,,NA,b_group,0.0-128.0,83,NA,NA,7,audio/syllables/IHB_IHP_5_09.wav,2,,1269,9,audio/syllables/IHB_IHP_5_09.wav,exposure,366976,128,audio-keyboard-response,syllable,NA,B,P,IH,RIGHT,
17,condition1,UHB_UHP_5_00,GD,,NA,b_group,0.0-129.0,83,NA,NA,8,audio/syllables/UHB_UHP_5_00.wav,2,,2269,0,audio/syllables/UHB_UHP_5_00.wav,exposure,370256,129,audio-keyboard-response,syllable,NA,B,P,UH,RIGHT,
17,condition1,AAB_AAP_1_16,GD,,NA,b_group,0.0-130.0,75,NA,NA,11,audio/syllables/AAB_AAP_1_16.wav,2,,1979,16,audio/syllables/AAB_AAP_1_16.wav,exposure,373248,130,audio-keyboard-response,syllable,NA,B,P,AA,RIGHT,
17,condition1,IHB_IHP_5_13,GD,,NA,b_group,0.0-131.0,83,NA,NA,7,audio/syllables/IHB_IHP_5_13.wav,3,,920,13,audio/syllables/IHB_IHP_5_13.wav,exposure,375176,131,audio-keyboard-response,syllable,NA,B,P,IH,RIGHT,
17,condition1,UHB_UHP_5_04,GD,,NA,b_group,0.0-132.0,83,NA,NA,8,audio/syllables/UHB_UHP_5_04.wav,3,,2499,4,audio/syllables/UHB_UHP_5_04.wav,exposure,378689,132,audio-keyboard-response,syllable,NA,B,P,UH,RIGHT,
17,condition1,AAB_AAP_1_11,GD,,NA,b_group,0.0-133.0,83,NA,NA,11,audio/syllables/AAB_AAP_1_11.wav,1,,2451,11,audio/syllables/AAB_AAP_1_11.wav,exposure,382152,133,audio-keyboard-response,syllable,NA,B,P,AA,RIGHT,
17,condition1,IHB_IHP_5_16,GD,,NA,b_group,0.0-134.0,83,NA,NA,7,audio/syllables/IHB_IHP_5_16.wav,1,,912,16,audio/syllables/IHB_IHP_5_16.wav,exposure,384072,134,audio-keyboard-response,syllable,NA,B,P,IH,RIGHT,
17,condition1,AHB_AHP_3_16,GD,,NA,b_group,0.0-135.0,83,NA,NA,14,audio/syllables/AHB_AHP_3_16.wav,1,,1091,16,audio/syllables/AHB_AHP_3_16.wav,exposure,386176,135,audio-keyboard-response,syllable,NA,B,P,AH,RIGHT,
17,condition1,IHB_IHP_5_00,GD,,NA,b_group,0.0-136.0,83,NA,NA,7,audio/syllables/IHB_IHP_5_00.wav,2,,1640,0,audio/syllables/IHB_IHP_5_00.wav,exposure,388824,136,audio-keyboard-response,syllable,NA,B,P,IH,RIGHT,
17,condition1,UHB_UHP_5_07,GD,,NA,b_group,0.0-137.0,83,NA,NA,8,audio/syllables/UHB_UHP_5_07.wav,1,,1299,7,audio/syllables/UHB_UHP_5_07.wav,exposure,391128,137,audio-keyboard-response,syllable,NA,B,P,UH,RIGHT,
17,condition1,AAB_AAP_1_20,GD,,NA,b_group,0.0-138.0,75,NA,NA,11,audio/syllables/AAB_AAP_1_20.wav,3,,891,20,audio/syllables/AAB_AAP_1_20.wav,exposure,393032,138,audio-keyboard-response,syllable,NA,B,P,AA,RIGHT,
17,condition1,IHB_IHP_5_30,GD,,NA,b_group,0.0-139.0,83,NA,NA,7,audio/syllables/IHB_IHP_5_30.wav,3,,739,30,audio/syllables/IHB_IHP_5_30.wav,exposure,394776,139,audio-keyboard-response,syllable,NA,B,P,IH,RIGHT,
17,condition1,IHB_IHP_5_07,GD,,NA,b_group,0.0-140.0,83,NA,NA,7,audio/syllables/IHB_IHP_5_07.wav,2,,1099,7,audio/syllables/IHB_IHP_5_07.wav,exposure,396880,140,audio-keyboard-response,syllable,NA,B,P,IH,RIGHT,
17,condition1,IHB_IHP_5_09,GD,,NA,b_group,0.0-141.0,75,NA,NA,7,audio/syllables/IHB_IHP_5_09.wav,1,,981,9,audio/syllables/IHB_IHP_5_09.wav,exposure,398865,141,audio-keyboard-response,syllable,NA,B,P,IH,RIGHT,
17,condition1,UHB_UHP_5_20,GD,,NA,b_group,0.0-142.0,83,NA,NA,8,audio/syllables/UHB_UHP_5_20.wav,3,,939,20,audio/syllables/UHB_UHP_5_20.wav,exposure,400808,142,audio-keyboard-response,syllable,NA,B,P,UH,RIGHT,
17,condition1,UHB_UHP_5_09,GD,,NA,b_group,0.0-143.0,75,NA,NA,8,audio/syllables/UHB_UHP_5_09.wav,3,,1059,9,audio/syllables/UHB_UHP_5_09.wav,exposure,402880,143,audio-keyboard-response,syllable,NA,B,P,UH,RIGHT,
17,condition1,AAB_AAP_1_25,GD,,NA,b_group,0.0-144.0,75,NA,NA,11,audio/syllables/AAB_AAP_1_25.wav,2,,901,25,audio/syllables/AAB_AAP_1_25.wav,exposure,404792,144,audio-keyboard-response,syllable,NA,B,P,AA,RIGHT,
17,condition1,AHB_AHP_3_04,GD,,NA,b_group,0.0-145.0,83,NA,NA,14,audio/syllables/AHB_AHP_3_04.wav,3,,819,4,audio/syllables/AHB_AHP_3_04.wav,exposure,406616,145,audio-keyboard-response,syllable,NA,B,P,AH,RIGHT,
17,condition1,AAB_AAP_1_13,GD,,NA,b_group,0.0-146.0,75,NA,NA,11,audio/syllables/AAB_AAP_1_13.wav,1,,749,13,audio/syllables/AAB_AAP_1_13.wav,exposure,408368,146,audio-keyboard-response,syllable,NA,B,P,AA,RIGHT,
17,condition1,UHB_UHP_5_07,GD,,NA,b_group,0.0-147.0,83,NA,NA,8,audio/syllables/UHB_UHP_5_07.wav,3,,731,7,audio/syllables/UHB_UHP_5_07.wav,exposure,410112,147,audio-keyboard-response,syllable,NA,B,P,UH,RIGHT,
17,condition1,UHB_UHP_5_13,GD,,NA,b_group,0.0-148.0,83,NA,NA,8,audio/syllables/UHB_UHP_5_13.wav,1,,680,13,audio/syllables/UHB_UHP_5_13.wav,exposure,411808,148,audio-keyboard-response,syllable,NA,B,P,UH,RIGHT,
17,condition1,AAB_AAP_1_13,GD,,NA,b_group,0.0-149.0,75,NA,NA,11,audio/syllables/AAB_AAP_1_13.wav,2,,1109,13,audio/syllables/AAB_AAP_1_13.wav,exposure,413928,149,audio-keyboard-response,syllable,NA,B,P,AA,RIGHT,
17,condition1,AAB_AAP_1_20,GD,,NA,b_group,0.0-150.0,75,NA,NA,11,audio/syllables/AAB_AAP_1_20.wav,1,,899,20,audio/syllables/AAB_AAP_1_20.wav,exposure,415847,150,audio-keyboard-response,syllable,NA,B,P,AA,RIGHT,
17,condition1,UHB_UHP_5_20,GD,,NA,b_group,0.0-151.0,75,NA,NA,8,audio/syllables/UHB_UHP_5_20.wav,2,,1160,20,audio/syllables/UHB_UHP_5_20.wav,exposure,418018,151,audio-keyboard-response,syllable,NA,B,P,UH,RIGHT,
17,condition1,IHB_IHP_5_04,GD,,NA,b_group,0.0-152.0,75,NA,NA,7,audio/syllables/IHB_IHP_5_04.wav,1,,1099,4,audio/syllables/IHB_IHP_5_04.wav,exposure,420138,152,audio-keyboard-response,syllable,NA,B,P,IH,RIGHT,
17,condition1,AHB_AHP_3_30,GD,,NA,b_group,0.0-153.0,83,NA,NA,14,audio/syllables/AHB_AHP_3_30.wav,1,,1189,30,audio/syllables/AHB_AHP_3_30.wav,exposure,422345,153,audio-keyboard-response,syllable,NA,B,P,AH,RIGHT,
17,condition1,AAB_AAP_1_07,GD,,NA,b_group,0.0-154.0,75,NA,NA,11,audio/syllables/AAB_AAP_1_07.wav,2,,939,7,audio/syllables/AAB_AAP_1_07.wav,exposure,424297,154,audio-keyboard-response,syllable,NA,B,P,AA,RIGHT,
17,condition1,AHB_AHP_3_25,GD,,NA,b_group,0.0-155.0,83,NA,NA,14,audio/syllables/AHB_AHP_3_25.wav,2,,1139,25,audio/syllables/AHB_AHP_3_25.wav,exposure,426449,155,audio-keyboard-response,syllable,NA,B,P,AH,RIGHT,
17,condition1,UHB_UHP_5_11,GD,,NA,b_group,0.0-156.0,83,NA,NA,8,audio/syllables/UHB_UHP_5_11.wav,3,,840,11,audio/syllables/UHB_UHP_5_11.wav,exposure,428297,156,audio-keyboard-response,syllable,NA,B,P,UH,RIGHT,
17,condition1,IHB_IHP_5_25,GD,,NA,b_group,0.0-157.0,75,NA,NA,7,audio/syllables/IHB_IHP_5_25.wav,2,,731,25,audio/syllables/IHB_IHP_5_25.wav,exposure,430033,157,audio-keyboard-response,syllable,NA,B,P,IH,RIGHT,
17,condition1,AAB_AAP_1_16,GD,,NA,b_group,0.0-158.0,83,NA,NA,11,audio/syllables/AAB_AAP_1_16.wav,3,,1421,16,audio/syllables/AAB_AAP_1_16.wav,exposure,432466,158,audio-keyboard-response,syllable,NA,B,P,AA,RIGHT,
17,condition1,AAB_AAP_1_07,GD,,NA,b_group,0.0-159.0,83,NA,NA,11,audio/syllables/AAB_AAP_1_07.wav,3,,1349,7,audio/syllables/AAB_AAP_1_07.wav,exposure,434825,159,audio-keyboard-response,syllable,NA,B,P,AA,RIGHT,
17,condition1,IHB_IHP_5_20,GD,,NA,b_group,0.0-160.0,75,NA,NA,7,audio/syllables/IHB_IHP_5_20.wav,1,,1029,20,audio/syllables/IHB_IHP_5_20.wav,exposure,436858,160,audio-keyboard-response,syllable,NA,B,P,IH,RIGHT,
17,condition1,IHB_IHP_5_20,GD,,NA,b_group,0.0-161.0,75,NA,NA,7,audio/syllables/IHB_IHP_5_20.wav,3,,1149,20,audio/syllables/IHB_IHP_5_20.wav,exposure,439025,161,audio-keyboard-response,syllable,NA,B,P,IH,RIGHT,
17,condition1,AHB_AHP_3_13,GD,,NA,b_group,0.0-162.0,83,NA,NA,14,audio/syllables/AHB_AHP_3_13.wav,2,,1128,13,audio/syllables/AHB_AHP_3_13.wav,exposure,441169,162,audio-keyboard-response,syllable,NA,B,P,AH,RIGHT,
17,condition1,AHB_AHP_3_25,GD,,NA,b_group,0.0-163.0,75,NA,NA,14,audio/syllables/AHB_AHP_3_25.wav,3,,1109,25,audio/syllables/AHB_AHP_3_25.wav,exposure,443289,163,audio-keyboard-response,syllable,NA,B,P,AH,RIGHT,
17,condition1,AAB_AAP_1_04,GD,,NA,b_group,0.0-164.0,83,NA,NA,11,audio/syllables/AAB_AAP_1_04.wav,1,,901,4,audio/syllables/AAB_AAP_1_04.wav,exposure,445193,164,audio-keyboard-response,syllable,NA,B,P,AA,RIGHT,
17,condition1,AHB_AHP_3_07,GD,,NA,b_group,0.0-165.0,75,NA,NA,14,audio/syllables/AHB_AHP_3_07.wav,3,,1288,7,audio/syllables/AHB_AHP_3_07.wav,exposure,447489,165,audio-keyboard-response,syllable,NA,B,P,AH,RIGHT,
17,condition1,IHB_IHP_5_30,GD,,NA,b_group,0.0-166.0,75,NA,NA,7,audio/syllables/IHB_IHP_5_30.wav,2,,1029,30,audio/syllables/IHB_IHP_5_30.wav,exposure,449521,166,audio-keyboard-response,syllable,NA,B,P,IH,RIGHT,
17,condition1,IHB_IHP_5_25,GD,,NA,b_group,0.0-167.0,75,NA,NA,7,audio/syllables/IHB_IHP_5_25.wav,1,,680,25,audio/syllables/IHB_IHP_5_25.wav,exposure,451217,167,audio-keyboard-response,syllable,NA,B,P,IH,RIGHT,
17,condition1,AAB_AAP_1_20,GD,,NA,b_group,0.0-168.0,75,NA,NA,11,audio/syllables/AAB_AAP_1_20.wav,2,,1549,20,audio/syllables/AAB_AAP_1_20.wav,exposure,453777,168,audio-keyboard-response,syllable,NA,B,P,AA,RIGHT,
17,condition1,AAB_AAP_1_09,GD,,NA,b_group,0.0-169.0,75,NA,NA,11,audio/syllables/AAB_AAP_1_09.wav,2,,1269,9,audio/syllables/AAB_AAP_1_09.wav,exposure,456065,169,audio-keyboard-response,syllable,NA,B,P,AA,RIGHT,
17,condition1,UHB_UHP_5_09,GD,,NA,b_group,0.0-170.0,83,NA,NA,8,audio/syllables/UHB_UHP_5_09.wav,2,,899,9,audio/syllables/UHB_UHP_5_09.wav,exposure,457969,170,audio-keyboard-response,syllable,NA,B,P,UH,RIGHT,
17,condition1,IHB_IHP_5_25,GD,,NA,b_group,0.0-171.0,75,NA,NA,7,audio/syllables/IHB_IHP_5_25.wav,3,,901,25,audio/syllables/IHB_IHP_5_25.wav,exposure,459865,171,audio-keyboard-response,syllable,NA,B,P,IH,RIGHT,
17,condition1,AHB_AHP_3_09,GD,,NA,b_group,0.0-172.0,83,NA,NA,14,audio/syllables/AHB_AHP_3_09.wav,2,,808,9,audio/syllables/AHB_AHP_3_09.wav,exposure,461681,172,audio-keyboard-response,syllable,NA,B,P,AH,RIGHT,
17,condition1,UHB_UHP_5_13,GD,,NA,b_group,0.0-173.0,75,NA,NA,8,audio/syllables/UHB_UHP_5_13.wav,3,,1552,13,audio/syllables/UHB_UHP_5_13.wav,exposure,464234,173,audio-keyboard-response,syllable,NA,B,P,UH,RIGHT,
17,condition1,AAB_AAP_1_09,GD,,NA,b_group,0.0-174.0,83,NA,NA,11,audio/syllables/AAB_AAP_1_09.wav,1,,1048,9,audio/syllables/AAB_AAP_1_09.wav,exposure,466281,174,audio-keyboard-response,syllable,NA,B,P,AA,RIGHT,
17,condition1,UHB_UHP_5_30,GD,,NA,b_group,0.0-175.0,75,NA,NA,8,audio/syllables/UHB_UHP_5_30.wav,1,,1211,30,audio/syllables/UHB_UHP_5_30.wav,exposure,468497,175,audio-keyboard-response,syllable,NA,B,P,UH,RIGHT,
17,condition1,AHB_AHP_3_00,GD,,NA,b_group,0.0-176.0,83,NA,NA,14,audio/syllables/AHB_AHP_3_00.wav,2,,880,0,audio/syllables/AHB_AHP_3_00.wav,exposure,470393,176,audio-keyboard-response,syllable,NA,B,P,AH,RIGHT,
17,condition1,AAB_AAP_1_25,GD,,NA,b_group,0.0-177.0,75,NA,NA,11,audio/syllables/AAB_AAP_1_25.wav,1,,941,25,audio/syllables/AAB_AAP_1_25.wav,exposure,472345,177,audio-keyboard-response,syllable,NA,B,P,AA,RIGHT,
17,condition1,UHB_UHP_5_13,GD,,NA,b_group,0.0-178.0,83,NA,NA,8,audio/syllables/UHB_UHP_5_13.wav,2,,760,13,audio/syllables/UHB_UHP_5_13.wav,exposure,474113,178,audio-keyboard-response,syllable,NA,B,P,UH,RIGHT,
17,condition1,IHB_IHP_5_04,GD,,NA,b_group,0.0-179.0,75,NA,NA,7,audio/syllables/IHB_IHP_5_04.wav,3,,651,4,audio/syllables/IHB_IHP_5_04.wav,exposure,475778,179,audio-keyboard-response,syllable,NA,B,P,IH,RIGHT,
17,condition1,IHB_IHP_5_20,GD,,NA,b_group,0.0-180.0,75,NA,NA,7,audio/syllables/IHB_IHP_5_20.wav,2,,931,20,audio/syllables/IHB_IHP_5_20.wav,exposure,477715,180,audio-keyboard-response,syllable,NA,B,P,IH,RIGHT,
17,condition1,IHB_IHP_5_07,GD,,NA,b_group,0.0-181.0,75,NA,NA,7,audio/syllables/IHB_IHP_5_07.wav,3,,912,7,audio/syllables/IHB_IHP_5_07.wav,exposure,479643,181,audio-keyboard-response,syllable,NA,B,P,IH,RIGHT,
17,condition1,AAB_AAP_1_09,GD,,NA,b_group,0.0-182.0,83,NA,NA,11,audio/syllables/AAB_AAP_1_09.wav,3,,931,9,audio/syllables/AAB_AAP_1_09.wav,exposure,481587,182,audio-keyboard-response,syllable,NA,B,P,AA,RIGHT,
17,condition1,UHB_UHP_5_16,GD,,NA,b_group,0.0-183.0,75,NA,NA,8,audio/syllables/UHB_UHP_5_16.wav,2,,669,16,audio/syllables/UHB_UHP_5_16.wav,exposure,483259,183,audio-keyboard-response,syllable,NA,B,P,UH,RIGHT,
17,condition1,AHB_AHP_3_09,GD,,NA,b_group,0.0-184.0,83,NA,NA,14,audio/syllables/AHB_AHP_3_09.wav,1,,1488,9,audio/syllables/AHB_AHP_3_09.wav,exposure,485771,184,audio-keyboard-response,syllable,NA,B,P,AH,RIGHT,
17,condition1,AAB_AAP_1_11,GD,,NA,b_group,0.0-185.0,75,NA,NA,11,audio/syllables/AAB_AAP_1_11.wav,2,,1989,11,audio/syllables/AAB_AAP_1_11.wav,exposure,488763,185,audio-keyboard-response,syllable,NA,B,P,AA,RIGHT,
17,condition1,AHB_AHP_3_11,GD,,NA,b_group,0.0-186.0,83,NA,NA,14,audio/syllables/AHB_AHP_3_11.wav,2,,1752,11,audio/syllables/AHB_AHP_3_11.wav,exposure,491515,186,audio-keyboard-response,syllable,NA,B,P,AH,RIGHT,
17,condition1,AAB_AAP_1_30,GD,,NA,b_group,0.0-187.0,75,NA,NA,11,audio/syllables/AAB_AAP_1_30.wav,1,,1669,30,audio/syllables/AAB_AAP_1_30.wav,exposure,494187,187,audio-keyboard-response,syllable,NA,B,P,AA,RIGHT,
17,condition1,IHB_IHP_5_16,GD,,NA,b_group,0.0-188.0,83,NA,NA,7,audio/syllables/IHB_IHP_5_16.wav,3,,979,16,audio/syllables/IHB_IHP_5_16.wav,exposure,496179,188,audio-keyboard-response,syllable,NA,B,P,IH,RIGHT,
17,condition1,UHB_UHP_5_11,GD,,NA,b_group,0.0-189.0,75,NA,NA,8,audio/syllables/UHB_UHP_5_11.wav,2,,1229,11,audio/syllables/UHB_UHP_5_11.wav,exposure,498427,189,audio-keyboard-response,syllable,NA,B,P,UH,RIGHT,
17,condition1,AHB_AHP_3_00,GD,,NA,b_group,0.0-190.0,83,NA,NA,14,audio/syllables/AHB_AHP_3_00.wav,3,,928,0,audio/syllables/AHB_AHP_3_00.wav,exposure,500371,190,audio-keyboard-response,syllable,NA,B,P,AH,RIGHT,
17,condition1,UHB_UHP_5_11,GD,,NA,b_group,0.0-191.0,83,NA,NA,8,audio/syllables/UHB_UHP_5_11.wav,1,,989,11,audio/syllables/UHB_UHP_5_11.wav,exposure,502371,191,audio-keyboard-response,syllable,NA,B,P,UH,RIGHT,
17,condition1,IHB_IHP_5_13,GD,,NA,b_group,0.0-192.0,75,NA,NA,7,audio/syllables/IHB_IHP_5_13.wav,1,,909,13,audio/syllables/IHB_IHP_5_13.wav,exposure,504290,192,audio-keyboard-response,syllable,NA,B,P,IH,RIGHT,
17,condition1,AHB_AHP_3_20,GD,,NA,b_group,0.0-193.0,83,NA,NA,14,audio/syllables/AHB_AHP_3_20.wav,1,,939,20,audio/syllables/AHB_AHP_3_20.wav,exposure,506243,193,audio-keyboard-response,syllable,NA,B,P,AH,RIGHT,
17,condition1,AHB_AHP_3_11,GD,,NA,b_group,0.0-194.0,83,NA,NA,14,audio/syllables/AHB_AHP_3_11.wav,1,,960,11,audio/syllables/AHB_AHP_3_11.wav,exposure,508202,194,audio-keyboard-response,syllable,NA,B,P,AH,RIGHT,
17,condition1,AAB_AAP_1_00,GD,,NA,b_group,0.0-195.0,83,NA,NA,11,audio/syllables/AAB_AAP_1_00.wav,2,,1661,0,audio/syllables/AAB_AAP_1_00.wav,exposure,510867,195,audio-keyboard-response,syllable,NA,B,P,AA,RIGHT,
17,condition1,AHB_AHP_3_16,GD,,NA,b_group,0.0-196.0,75,NA,NA,14,audio/syllables/AHB_AHP_3_16.wav,2,,688,16,audio/syllables/AHB_AHP_3_16.wav,exposure,512570,196,audio-keyboard-response,syllable,NA,B,P,AH,RIGHT,
17,condition1,UHB_UHP_5_30,GD,,NA,b_group,0.0-197.0,75,NA,NA,8,audio/syllables/UHB_UHP_5_30.wav,3,,1211,30,audio/syllables/UHB_UHP_5_30.wav,exposure,514786,197,audio-keyboard-response,syllable,NA,B,P,UH,RIGHT,
17,condition1,AHB_AHP_3_20,GD,,NA,b_group,0.0-198.0,75,NA,NA,14,audio/syllables/AHB_AHP_3_20.wav,2,,800,20,audio/syllables/AHB_AHP_3_20.wav,exposure,516595,198,audio-keyboard-response,syllable,NA,B,P,AH,RIGHT,
17,condition1,IHB_IHP_5_11,GD,,NA,b_group,0.0-199.0,83,NA,NA,7,audio/syllables/IHB_IHP_5_11.wav,3,,1520,11,audio/syllables/IHB_IHP_5_11.wav,exposure,519122,199,audio-keyboard-response,syllable,NA,B,P,IH,RIGHT,
17,condition1,AHB_AHP_3_07,GD,,NA,b_group,0.0-200.0,83,NA,NA,14,audio/syllables/AHB_AHP_3_07.wav,2,,1091,7,audio/syllables/AHB_AHP_3_07.wav,exposure,521219,200,audio-keyboard-response,syllable,NA,B,P,AH,RIGHT,
17,condition1,AHB_AHP_3_30,GD,,NA,b_group,0.0-201.0,75,NA,NA,14,audio/syllables/AHB_AHP_3_30.wav,3,,1168,30,audio/syllables/AHB_AHP_3_30.wav,exposure,523402,201,audio-keyboard-response,syllable,NA,B,P,AH,RIGHT,
17,condition1,AHB_AHP_3_00,GD,,NA,b_group,0.0-202.0,83,NA,NA,14,audio/syllables/AHB_AHP_3_00.wav,1,,1312,0,audio/syllables/AHB_AHP_3_00.wav,exposure,525714,202,audio-keyboard-response,syllable,NA,B,P,AH,RIGHT,
17,condition1,UHB_UHP_5_30,GD,,NA,b_group,0.0-203.0,75,NA,NA,8,audio/syllables/UHB_UHP_5_30.wav,2,,760,30,audio/syllables/UHB_UHP_5_30.wav,exposure,527490,203,audio-keyboard-response,syllable,NA,B,P,UH,RIGHT,
17,condition1,AHB_AHP_3_30,GD,,NA,b_group,0.0-204.0,75,NA,NA,14,audio/syllables/AHB_AHP_3_30.wav,2,,960,30,audio/syllables/AHB_AHP_3_30.wav,exposure,529466,204,audio-keyboard-response,syllable,NA,B,P,AH,RIGHT,
17,condition1,AHB_AHP_3_13,GD,,NA,b_group,0.0-205.0,75,NA,NA,14,audio/syllables/AHB_AHP_3_13.wav,3,,629,13,audio/syllables/AHB_AHP_3_13.wav,exposure,531106,205,audio-keyboard-response,syllable,NA,B,P,AH,RIGHT,
17,condition1,AHB_AHP_3_04,GD,,NA,b_group,0.0-206.0,83,NA,NA,14,audio/syllables/AHB_AHP_3_04.wav,1,,1259,4,audio/syllables/AHB_AHP_3_04.wav,exposure,533379,206,audio-keyboard-response,syllable,NA,B,P,AH,RIGHT,
17,condition1,UHB_UHP_5_07,GD,,NA,b_group,0.0-207.0,83,NA,NA,8,audio/syllables/UHB_UHP_5_07.wav,2,,1248,7,audio/syllables/UHB_UHP_5_07.wav,exposure,535642,207,audio-keyboard-response,syllable,NA,B,P,UH,RIGHT,
17,condition1,AAB_AAP_1_00,GD,,NA,b_group,0.0-208.0,83,NA,NA,11,audio/syllables/AAB_AAP_1_00.wav,3,,1691,0,audio/syllables/AAB_AAP_1_00.wav,exposure,538341,208,audio-keyboard-response,syllable,NA,B,P,AA,RIGHT,
17,condition1,IHB_IHP_5_07,GD,,NA,b_group,0.0-209.0,75,NA,NA,7,audio/syllables/IHB_IHP_5_07.wav,1,,1131,7,audio/syllables/IHB_IHP_5_07.wav,exposure,540485,209,audio-keyboard-response,syllable,NA,B,P,IH,RIGHT,
17,condition1,AHB_AHP_3_11,GD,,NA,b_group,0.0-210.0,83,NA,NA,14,audio/syllables/AHB_AHP_3_11.wav,3,,941,11,audio/syllables/AHB_AHP_3_11.wav,exposure,542429,210,audio-keyboard-response,syllable,NA,B,P,AH,RIGHT,
17,condition1,AHB_AHP_3_25,GD,,NA,b_group,0.0-211.0,75,NA,NA,14,audio/syllables/AHB_AHP_3_25.wav,1,,1280,25,audio/syllables/AHB_AHP_3_25.wav,exposure,544717,211,audio-keyboard-response,syllable,NA,B,P,AH,RIGHT,
17,condition1,UHB_UHP_5_09,GD,,NA,b_group,0.0-212.0,83,NA,NA,8,audio/syllables/UHB_UHP_5_09.wav,1,,1120,9,audio/syllables/UHB_UHP_5_09.wav,exposure,546845,212,audio-keyboard-response,syllable,NA,B,P,UH,RIGHT,
17,condition1,AHB_AHP_3_13,GD,,NA,b_group,0.0-213.0,75,NA,NA,14,audio/syllables/AHB_AHP_3_13.wav,1,,661,13,audio/syllables/AHB_AHP_3_13.wav,exposure,548509,213,audio-keyboard-response,syllable,NA,B,P,AH,RIGHT,
17,condition1,IHB_IHP_5_00,GD,,NA,b_group,0.0-214.0,83,NA,NA,7,audio/syllables/IHB_IHP_5_00.wav,1,,608,0,audio/syllables/IHB_IHP_5_00.wav,exposure,550133,214,audio-keyboard-response,syllable,NA,B,P,IH,RIGHT,
17,condition1,AAB_AAP_1_13,GD,,NA,b_group,0.0-215.0,75,NA,NA,11,audio/syllables/AAB_AAP_1_13.wav,3,,1800,13,audio/syllables/AAB_AAP_1_13.wav,exposure,552933,215,audio-keyboard-response,syllable,NA,B,P,AA,RIGHT,
17,condition1,IHB_IHP_5_11,GD,,NA,b_group,0.0-216.0,83,NA,NA,7,audio/syllables/IHB_IHP_5_11.wav,1,,869,11,audio/syllables/IHB_IHP_5_11.wav,exposure,554805,216,audio-keyboard-response,syllable,NA,B,P,IH,RIGHT,
17,condition1,AAB_AAP_1_16,GD,,NA,b_group,0.0-217.0,75,NA,NA,11,audio/syllables/AAB_AAP_1_16.wav,1,,1061,16,audio/syllables/AAB_AAP_1_16.wav,exposure,556876,217,audio-keyboard-response,syllable,NA,B,P,AA,RIGHT,
17,condition1,AAB_AAP_1_25,GD,,NA,b_group,0.0-218.0,75,NA,NA,11,audio/syllables/AAB_AAP_1_25.wav,3,,1688,25,audio/syllables/AAB_AAP_1_25.wav,exposure,559573,218,audio-keyboard-response,syllable,NA,B,P,AA,RIGHT,
17,condition1,UHB_UHP_5_25,GD,,NA,b_group,0.0-219.0,75,NA,NA,8,audio/syllables/UHB_UHP_5_25.wav,2,,1000,25,audio/syllables/UHB_UHP_5_25.wav,exposure,561580,219,audio-keyboard-response,syllable,NA,B,P,UH,RIGHT,
17,condition1,UHB_UHP_5_04,GD,,NA,b_group,0.0-220.0,83,NA,NA,8,audio/syllables/UHB_UHP_5_04.wav,1,,869,4,audio/syllables/UHB_UHP_5_04.wav,exposure,563460,220,audio-keyboard-response,syllable,NA,B,P,UH,RIGHT,
17,condition1,IHB_IHP_5_30,GD,,NA,b_group,0.0-221.0,75,NA,NA,7,audio/syllables/IHB_IHP_5_30.wav,1,,771,30,audio/syllables/IHB_IHP_5_30.wav,exposure,565237,221,audio-keyboard-response,syllable,NA,B,P,IH,RIGHT,
17,condition1,UHB_UHP_5_00,GD,,NA,b_group,0.0-222.0,83,NA,NA,8,audio/syllables/UHB_UHP_5_00.wav,3,,891,0,audio/syllables/UHB_UHP_5_00.wav,exposure,567140,222,audio-keyboard-response,syllable,NA,B,P,UH,RIGHT,
17,condition1,AAB_AAP_1_30,GD,,NA,b_group,0.0-223.0,75,NA,NA,11,audio/syllables/AAB_AAP_1_30.wav,3,,1240,30,audio/syllables/AAB_AAP_1_30.wav,exposure,569388,223,audio-keyboard-response,syllable,NA,B,P,AA,RIGHT,
17,condition1,,,,,,0.0-224.0,32,,,,,,,6443.535000085831,,"<div class=""pre-test-container""><p>In the next round, you'll hear single syllables again, but this time starting with different sounds. You can expect to hear syllables like <em>ahg</em> or <em>ahk</em>.<br><br>Select the sound that started the syllable by pressing S or K.<br><br>Press the space bar to continue.</p></div>",,576837,224,html-keyboard-response,,,,,,,
17,condition1,UHG_UHK_5_07,GD,,NA,b_group,0.0-225.0,83,NA,NA,6,audio/syllables/UHG_UHK_5_07.wav,1,,1280,7,audio/syllables/UHG_UHK_5_07.wav,exposure,579116,225,audio-keyboard-response,syllable,NA,G,K,UH,RIGHT,
17,condition1,AHG_AHK_3_13,GD,,NA,b_group,0.0-226.0,83,NA,NA,14,audio/syllables/AHG_AHK_3_13.wav,2,,1669,13,audio/syllables/AHG_AHK_3_13.wav,exposure,581788,226,audio-keyboard-response,syllable,NA,G,K,AH,RIGHT,
17,condition1,IHG_IHK_5_09,GD,,NA,b_group,0.0-227.0,75,NA,NA,12,audio/syllables/IHG_IHK_5_09.wav,3,,1099,9,audio/syllables/IHG_IHK_5_09.wav,exposure,583900,227,audio-keyboard-response,syllable,NA,G,K,IH,RIGHT,
17,condition1,IHG_IHK_5_13,GD,,NA,b_group,0.0-228.0,83,NA,NA,12,audio/syllables/IHG_IHK_5_13.wav,2,,1211,13,audio/syllables/IHG_IHK_5_13.wav,exposure,586116,228,audio-keyboard-response,syllable,NA,G,K,IH,RIGHT,
17,condition1,AHG_AHK_3_07,GD,,NA,b_group,0.0-229.0,83,NA,NA,14,audio/syllables/AHG_AHK_3_07.wav,1,,1960,7,audio/syllables/AHG_AHK_3_07.wav,exposure,589076,229,audio-keyboard-response,syllable,NA,G,K,AH,RIGHT,
17,condition1,UHG_UHK_5_20,GD,,NA,b_group,0.0-230.0,75,NA,NA,6,audio/syllables/UHG_UHK_5_20.wav,3,,1341,20,audio/syllables/UHG_UHK_5_20.wav,exposure,591428,230,audio-keyboard-response,syllable,NA,G,K,UH,RIGHT,
17,condition1,UHG_UHK_5_20,GD,,NA,b_group,0.0-231.0,75,NA,NA,6,audio/syllables/UHG_UHK_5_20.wav,1,,928,20,audio/syllables/UHG_UHK_5_20.wav,exposure,593364,231,audio-keyboard-response,syllable,NA,G,K,UH,RIGHT,
17,condition1,AHG_AHK_3_20,GD,,NA,b_group,0.0-232.0,75,NA,NA,14,audio/syllables/AHG_AHK_3_20.wav,1,,811,20,audio/syllables/AHG_AHK_3_20.wav,exposure,595188,232,audio-keyboard-response,syllable,NA,G,K,AH,RIGHT,
17,condition1,AAG_AAK_3_00,GD,,NA,b_group,0.0-233.0,83,NA,NA,10,audio/syllables/AAG_AAK_3_00.wav,3,,1029,0,audio/syllables/AAG_AAK_3_00.wav,exposure,597228,233,audio-keyboard-response,syllable,NA,G,K,AA,RIGHT,
17,condition1,UHG_UHK_5_09,GD,,NA,b_group,0.0-234.0,83,NA,NA,6,audio/syllables/UHG_UHK_5_09.wav,2,,1909,9,audio/syllables/UHG_UHK_5_09.wav,exposure,600151,234,audio-keyboard-response,syllable,NA,G,K,UH,RIGHT,
17,condition1,UHG_UHK_5_07,GD,,NA,b_group,0.0-235.0,83,NA,NA,6,audio/syllables/UHG_UHK_5_07.wav,2,,1200,7,audio/syllables/UHG_UHK_5_07.wav,exposure,602358,235,audio-keyboard-response,syllable,NA,G,K,UH,RIGHT,
17,condition1,UHG_UHK_5_20,GD,,NA,b_group,0.0-236.0,83,NA,NA,6,audio/syllables/UHG_UHK_5_20.wav,2,,720,20,audio/syllables/UHG_UHK_5_20.wav,exposure,604086,236,audio-keyboard-response,syllable,NA,G,K,UH,RIGHT,
17,condition1,IHG_IHK_5_13,GD,,NA,b_group,0.0-237.0,75,NA,NA,12,audio/syllables/IHG_IHK_5_13.wav,3,,840,13,audio/syllables/IHG_IHK_5_13.wav,exposure,605942,237,audio-keyboard-response,syllable,NA,G,K,IH,RIGHT,
17,condition1,IHG_IHK_5_00,GD,,NA,b_group,0.0-238.0,83,NA,NA,12,audio/syllables/IHG_IHK_5_00.wav,1,,899,0,audio/syllables/IHG_IHK_5_00.wav,exposure,607862,238,audio-keyboard-response,syllable,NA,G,K,IH,RIGHT,
17,condition1,AAG_AAK_3_20,GD,,NA,b_group,0.0-239.0,75,NA,NA,10,audio/syllables/AAG_AAK_3_20.wav,2,,1539,20,audio/syllables/AAG_AAK_3_20.wav,exposure,610423,239,audio-keyboard-response,syllable,NA,G,K,AA,RIGHT,
17,condition1,AHG_AHK_3_11,GD,,NA,b_group,0.0-240.0,83,NA,NA,14,audio/syllables/AHG_AHK_3_11.wav,1,,680,11,audio/syllables/AHG_AHK_3_11.wav,exposure,612111,240,audio-keyboard-response,syllable,NA,G,K,AH,RIGHT,
17,condition1,AHG_AHK_3_20,GD,,NA,b_group,0.0-241.0,75,NA,NA,14,audio/syllables/AHG_AHK_3_20.wav,3,,1419,20,audio/syllables/AHG_AHK_3_20.wav,exposure,614543,241,audio-keyboard-response,syllable,NA,G,K,AH,RIGHT,
17,condition1,AHG_AHK_3_09,GD,,NA,b_group,0.0-242.0,83,NA,NA,14,audio/syllables/AHG_AHK_3_09.wav,2,,888,9,audio/syllables/AHG_AHK_3_09.wav,exposure,616446,242,audio-keyboard-response,syllable,NA,G,K,AH,RIGHT,
17,condition1,AHG_AHK_3_13,GD,,NA,b_group,0.0-243.0,75,NA,NA,14,audio/syllables/AHG_AHK_3_13.wav,3,,971,13,audio/syllables/AHG_AHK_3_13.wav,exposure,618422,243,audio-keyboard-response,syllable,NA,G,K,AH,RIGHT,
17,condition1,IHG_IHK_5_13,GD,,NA,b_group,0.0-244.0,83,NA,NA,12,audio/syllables/IHG_IHK_5_13.wav,1,,760,13,audio/syllables/IHG_IHK_5_13.wav,exposure,620182,244,audio-keyboard-response,syllable,NA,G,K,IH,RIGHT,
17,condition1,AHG_AHK_3_04,GD,,NA,b_group,0.0-245.0,75,NA,NA,14,audio/syllables/AHG_AHK_3_04.wav,1,,1011,4,audio/syllables/AHG_AHK_3_04.wav,exposure,622198,245,audio-keyboard-response,syllable,NA,G,K,AH,RIGHT,
17,condition1,UHG_UHK_5_16,GD,,NA,b_group,0.0-246.0,75,NA,NA,6,audio/syllables/UHG_UHK_5_16.wav,3,,1120,16,audio/syllables/UHG_UHK_5_16.wav,exposure,624326,246,audio-keyboard-response,syllable,NA,G,K,UH,RIGHT,
17,condition1,AAG_AAK_3_00,GD,,NA,b_group,0.0-247.0,83,NA,NA,10,audio/syllables/AAG_AAK_3_00.wav,2,,912,0,audio/syllables/AAG_AAK_3_00.wav,exposure,626238,247,audio-keyboard-response,syllable,NA,G,K,AA,RIGHT,
17,condition1,UHG_UHK_5_04,GD,,NA,b_group,0.0-248.0,75,NA,NA,6,audio/syllables/UHG_UHK_5_04.wav,3,,1008,4,audio/syllables/UHG_UHK_5_04.wav,exposure,628254,248,audio-keyboard-response,syllable,NA,G,K,UH,RIGHT,
17,condition1,IHG_IHK_5_07,GD,,NA,b_group,0.0-249.0,83,NA,NA,12,audio/syllables/IHG_IHK_5_07.wav,1,,731,7,audio/syllables/IHG_IHK_5_07.wav,exposure,629990,249,audio-keyboard-response,syllable,NA,G,K,IH,RIGHT,
17,condition1,UHG_UHK_5_13,GD,,NA,b_group,0.0-250.0,75,NA,NA,6,audio/syllables/UHG_UHK_5_13.wav,2,,968,13,audio/syllables/UHG_UHK_5_13.wav,exposure,631974,250,audio-keyboard-response,syllable,NA,G,K,UH,RIGHT,
17,condition1,IHG_IHK_5_11,GD,,NA,b_group,0.0-251.0,83,NA,NA,12,audio/syllables/IHG_IHK_5_11.wav,1,,1331,11,audio/syllables/IHG_IHK_5_11.wav,exposure,634318,251,audio-keyboard-response,syllable,NA,G,K,IH,RIGHT,
17,condition1,AAG_AAK_3_25,GD,,NA,b_group,0.0-252.0,75,NA,NA,10,audio/syllables/AAG_AAK_3_25.wav,1,,1160,25,audio/syllables/AAG_AAK_3_25.wav,exposure,636494,252,audio-keyboard-response,syllable,NA,G,K,AA,RIGHT,
17,condition1,IHG_IHK_5_25,GD,,NA,b_group,0.0-253.0,83,NA,NA,12,audio/syllables/IHG_IHK_5_25.wav,1,,1280,25,audio/syllables/IHG_IHK_5_25.wav,exposure,638782,253,audio-keyboard-response,syllable,NA,G,K,IH,RIGHT,
17,condition1,UHG_UHK_5_16,GD,,NA,b_group,0.0-254.0,75,NA,NA,6,audio/syllables/UHG_UHK_5_16.wav,2,,1360,16,audio/syllables/UHG_UHK_5_16.wav,exposure,641150,254,audio-keyboard-response,syllable,NA,G,K,UH,RIGHT,
17,condition1,UHG_UHK_5_30,GD,,NA,b_group,0.0-255.0,75,NA,NA,6,audio/syllables/UHG_UHK_5_30.wav,1,,1069,30,audio/syllables/UHG_UHK_5_30.wav,exposure,643230,255,audio-keyboard-response,syllable,NA,G,K,UH,RIGHT,
17,condition1,AHG_AHK_3_25,GD,,NA,b_group,0.0-256.0,75,NA,NA,14,audio/syllables/AHG_AHK_3_25.wav,2,,840,25,audio/syllables/AHG_AHK_3_25.wav,exposure,645070,256,audio-keyboard-response,syllable,NA,G,K,AH,RIGHT,
17,condition1,AAG_AAK_3_11,GD,,NA,b_group,0.0-257.0,83,NA,NA,10,audio/syllables/AAG_AAK_3_11.wav,2,,1099,11,audio/syllables/AAG_AAK_3_11.wav,exposure,647182,257,audio-keyboard-response,syllable,NA,G,K,AA,RIGHT,
17,condition1,AHG_AHK_3_11,GD,,NA,b_group,0.0-258.0,75,NA,NA,14,audio/syllables/AHG_AHK_3_11.wav,2,,1051,11,audio/syllables/AHG_AHK_3_11.wav,exposure,649238,258,audio-keyboard-response,syllable,NA,G,K,AH,RIGHT,
17,condition1,UHG_UHK_5_25,GD,,NA,b_group,0.0-259.0,83,NA,NA,6,audio/syllables/UHG_UHK_5_25.wav,2,,800,25,audio/syllables/UHG_UHK_5_25.wav,exposure,651054,259,audio-keyboard-response,syllable,NA,G,K,UH,RIGHT,
17,condition1,UHG_UHK_5_25,GD,,NA,b_group,0.0-260.0,75,NA,NA,6,audio/syllables/UHG_UHK_5_25.wav,1,,971,25,audio/syllables/UHG_UHK_5_25.wav,exposure,653038,260,audio-keyboard-response,syllable,NA,G,K,UH,RIGHT,
17,condition1,IHG_IHK_5_16,GD,,NA,b_group,0.0-261.0,75,NA,NA,12,audio/syllables/IHG_IHK_5_16.wav,1,,920,16,audio/syllables/IHG_IHK_5_16.wav,exposure,654958,261,audio-keyboard-response,syllable,NA,G,K,IH,RIGHT,
17,condition1,IHG_IHK_5_16,GD,,NA,b_group,0.0-262.0,75,NA,NA,12,audio/syllables/IHG_IHK_5_16.wav,3,,829,16,audio/syllables/IHG_IHK_5_16.wav,exposure,656790,262,audio-keyboard-response,syllable,NA,G,K,IH,RIGHT,
17,condition1,UHG_UHK_5_11,GD,,NA,b_group,0.0-263.0,75,NA,NA,6,audio/syllables/UHG_UHK_5_11.wav,3,,1600,11,audio/syllables/UHG_UHK_5_11.wav,exposure,659398,263,audio-keyboard-response,syllable,NA,G,K,UH,RIGHT,
17,condition1,UHG_UHK_5_09,GD,,NA,b_group,0.0-264.0,75,NA,NA,6,audio/syllables/UHG_UHK_5_09.wav,1,,688,9,audio/syllables/UHG_UHK_5_09.wav,exposure,661095,264,audio-keyboard-response,syllable,NA,G,K,UH,RIGHT,
17,condition1,UHG_UHK_5_11,GD,,NA,b_group,0.0-265.0,75,NA,NA,6,audio/syllables/UHG_UHK_5_11.wav,1,,1160,11,audio/syllables/UHG_UHK_5_11.wav,exposure,663272,265,audio-keyboard-response,syllable,NA,G,K,UH,RIGHT,
17,condition1,UHG_UHK_5_30,GD,,NA,b_group,0.0-266.0,75,NA,NA,6,audio/syllables/UHG_UHK_5_30.wav,3,,1552,30,audio/syllables/UHG_UHK_5_30.wav,exposure,665839,266,audio-keyboard-response,syllable,NA,G,K,UH,RIGHT,
17,condition1,AHG_AHK_3_30,GD,,NA,b_group,0.0-267.0,75,NA,NA,14,audio/syllables/AHG_AHK_3_30.wav,3,,909,30,audio/syllables/AHG_AHK_3_30.wav,exposure,667751,267,audio-keyboard-response,syllable,NA,G,K,AH,RIGHT,
17,condition1,AAG_AAK_3_25,GD,,NA,b_group,0.0-268.0,75,NA,NA,10,audio/syllables/AAG_AAK_3_25.wav,3,,1448,25,audio/syllables/AAG_AAK_3_25.wav,exposure,670207,268,audio-keyboard-response,syllable,NA,G,K,AA,RIGHT,
17,condition1,AHG_AHK_3_16,GD,,NA,b_group,0.0-269.0,83,NA,NA,14,audio/syllables/AHG_AHK_3_16.wav,2,,1080,16,audio/syllables/AHG_AHK_3_16.wav,exposure,672303,269,audio-keyboard-response,syllable,NA,G,K,AH,RIGHT,
17,condition1,AHG_AHK_3_00,GD,,NA,b_group,0.0-270.0,83,NA,NA,14,audio/syllables/AHG_AHK_3_00.wav,1,,888,0,audio/syllables/AHG_AHK_3_00.wav,exposure,674215,270,audio-keyboard-response,syllable,NA,G,K,AH,RIGHT,
17,condition1,AAG_AAK_3_11,GD,,NA,b_group,0.0-271.0,83,NA,NA,10,audio/syllables/AAG_AAK_3_11.wav,1,,1189,11,audio/syllables/AAG_AAK_3_11.wav,exposure,676415,271,audio-keyboard-response,syllable,NA,G,K,AA,RIGHT,
17,condition1,UHG_UHK_5_00,GD,,NA,b_group,0.0-272.0,83,NA,NA,6,audio/syllables/UHG_UHK_5_00.wav,1,,1051,0,audio/syllables/UHG_UHK_5_00.wav,exposure,678487,272,audio-keyboard-response,syllable,NA,G,K,UH,RIGHT,
17,condition1,AAG_AAK_3_16,GD,,NA,b_group,0.0-273.0,83,NA,NA,10,audio/syllables/AAG_AAK_3_16.wav,1,,971,16,audio/syllables/AAG_AAK_3_16.wav,exposure,680463,273,audio-keyboard-response,syllable,NA,G,K,AA,RIGHT,
17,condition1,AHG_AHK_3_30,GD,,NA,b_group,0.0-274.0,75,NA,NA,14,audio/syllables/AHG_AHK_3_30.wav,2,,920,30,audio/syllables/AHG_AHK_3_30.wav,exposure,682383,274,audio-keyboard-response,syllable,NA,G,K,AH,RIGHT,
17,condition1,UHG_UHK_5_13,GD,,NA,b_group,0.0-275.0,75,NA,NA,6,audio/syllables/UHG_UHK_5_13.wav,3,,1539,13,audio/syllables/UHG_UHK_5_13.wav,exposure,684944,275,audio-keyboard-response,syllable,NA,G,K,UH,RIGHT,
17,condition1,AHG_AHK_3_25,GD,,NA,b_group,0.0-276.0,75,NA,NA,14,audio/syllables/AHG_AHK_3_25.wav,1,,1048,25,audio/syllables/AHG_AHK_3_25.wav,exposure,687015,276,audio-keyboard-response,syllable,NA,G,K,AH,RIGHT,
17,condition1,AHG_AHK_3_04,GD,,NA,b_group,0.0-277.0,83,NA,NA,14,audio/syllables/AHG_AHK_3_04.wav,2,,1189,4,audio/syllables/AHG_AHK_3_04.wav,exposure,689206,277,audio-keyboard-response,syllable,NA,G,K,AH,RIGHT,
17,condition1,AAG_AAK_3_30,GD,,NA,b_group,0.0-278.0,75,NA,NA,10,audio/syllables/AAG_AAK_3_30.wav,1,,1101,30,audio/syllables/AAG_AAK_3_30.wav,exposure,691311,278,audio-keyboard-response,syllable,NA,G,K,AA,RIGHT,
17,condition1,IHG_IHK_5_30,GD,,NA,b_group,0.0-279.0,83,NA,NA,12,audio/syllables/IHG_IHK_5_30.wav,3,,848,30,audio/syllables/IHG_IHK_5_30.wav,exposure,693167,279,audio-keyboard-response,syllable,NA,G,K,IH,RIGHT,
17,condition1,IHG_IHK_5_30,GD,,NA,b_group,0.0-280.0,75,NA,NA,12,audio/syllables/IHG_IHK_5_30.wav,2,,1331,30,audio/syllables/IHG_IHK_5_30.wav,exposure,695511,280,audio-keyboard-response,syllable,NA,G,K,IH,RIGHT,
17,condition1,IHG_IHK_5_25,GD,,NA,b_group,0.0-281.0,75,NA,NA,12,audio/syllables/IHG_IHK_5_25.wav,3,,949,25,audio/syllables/IHG_IHK_5_25.wav,exposure,697471,281,audio-keyboard-response,syllable,NA,G,K,IH,RIGHT,
17,condition1,AAG_AAK_3_30,GD,,NA,b_group,0.0-282.0,75,NA,NA,10,audio/syllables/AAG_AAK_3_30.wav,2,,989,30,audio/syllables/AAG_AAK_3_30.wav,exposure,699470,282,audio-keyboard-response,syllable,NA,G,K,AA,RIGHT,
17,condition1,AAG_AAK_3_11,GD,,NA,b_group,0.0-283.0,83,NA,NA,10,audio/syllables/AAG_AAK_3_11.wav,3,,779,11,audio/syllables/AAG_AAK_3_11.wav,exposure,701263,283,audio-keyboard-response,syllable,NA,G,K,AA,RIGHT,
17,condition1,IHG_IHK_5_09,GD,,NA,b_group,0.0-284.0,83,NA,NA,12,audio/syllables/IHG_IHK_5_09.wav,1,,1288,9,audio/syllables/IHG_IHK_5_09.wav,exposure,703566,284,audio-keyboard-response,syllable,NA,G,K,IH,RIGHT,
17,condition1,UHG_UHK_5_04,GD,,NA,b_group,0.0-285.0,83,NA,NA,6,audio/syllables/UHG_UHK_5_04.wav,2,,1592,4,audio/syllables/UHG_UHK_5_04.wav,exposure,706159,285,audio-keyboard-response,syllable,NA,G,K,UH,RIGHT,
17,condition1,AHG_AHK_3_16,GD,,NA,b_group,0.0-286.0,75,NA,NA,14,audio/syllables/AHG_AHK_3_16.wav,1,,821,16,audio/syllables/AHG_AHK_3_16.wav,exposure,707990,286,audio-keyboard-response,syllable,NA,G,K,AH,RIGHT,
17,condition1,AAG_AAK_3_20,GD,,NA,b_group,0.0-287.0,83,NA,NA,10,audio/syllables/AAG_AAK_3_20.wav,1,,800,20,audio/syllables/AAG_AAK_3_20.wav,exposure,709814,287,audio-keyboard-response,syllable,NA,G,K,AA,RIGHT,
17,condition1,AHG_AHK_3_00,GD,,NA,b_group,0.0-288.0,83,NA,NA,14,audio/syllables/AHG_AHK_3_00.wav,3,,1091,0,audio/syllables/AHG_AHK_3_00.wav,exposure,711910,288,audio-keyboard-response,syllable,NA,G,K,AH,RIGHT,
17,condition1,IHG_IHK_5_09,GD,,NA,b_group,0.0-289.0,83,NA,NA,12,audio/syllables/IHG_IHK_5_09.wav,2,,1219,9,audio/syllables/IHG_IHK_5_09.wav,exposure,714142,289,audio-keyboard-response,syllable,NA,G,K,IH,RIGHT,
17,condition1,UHG_UHK_5_11,GD,,NA,b_group,0.0-290.0,83,NA,NA,6,audio/syllables/UHG_UHK_5_11.wav,2,,688,11,audio/syllables/UHG_UHK_5_11.wav,exposure,715846,290,audio-keyboard-response,syllable,NA,G,K,UH,RIGHT,
17,condition1,IHG_IHK_5_07,GD,,NA,b_group,0.0-291.0,83,NA,NA,12,audio/syllables/IHG_IHK_5_07.wav,2,,901,7,audio/syllables/IHG_IHK_5_07.wav,exposure,717751,291,audio-keyboard-response,syllable,NA,G,K,IH,RIGHT,
17,condition1,UHG_UHK_5_00,GD,,NA,b_group,0.0-292.0,83,NA,NA,6,audio/syllables/UHG_UHK_5_00.wav,3,,1448,0,audio/syllables/UHG_UHK_5_00.wav,exposure,720214,292,audio-keyboard-response,syllable,NA,G,K,UH,RIGHT,
17,condition1,IHG_IHK_5_00,GD,,NA,b_group,0.0-293.0,83,NA,NA,12,audio/syllables/IHG_IHK_5_00.wav,2,,579,0,audio/syllables/IHG_IHK_5_00.wav,exposure,721814,293,audio-keyboard-response,syllable,NA,G,K,IH,RIGHT,
17,condition1,AAG_AAK_3_13,GD,,NA,b_group,0.0-294.0,75,NA,NA,10,audio/syllables/AAG_AAK_3_13.wav,1,,1091,13,audio/syllables/AAG_AAK_3_13.wav,exposure,723910,294,audio-keyboard-response,syllable,NA,G,K,AA,RIGHT,
17,condition1,AAG_AAK_3_09,GD,,NA,b_group,0.0-295.0,83,NA,NA,10,audio/syllables/AAG_AAK_3_09.wav,2,,771,9,audio/syllables/AAG_AAK_3_09.wav,exposure,725678,295,audio-keyboard-response,syllable,NA,G,K,AA,RIGHT,
17,condition1,IHG_IHK_5_25,GD,,NA,b_group,0.0-296.0,75,NA,NA,12,audio/syllables/IHG_IHK_5_25.wav,2,,1192,25,audio/syllables/IHG_IHK_5_25.wav,exposure,727879,296,audio-keyboard-response,syllable,NA,G,K,IH,RIGHT,
17,condition1,AHG_AHK_3_30,GD,,NA,b_group,0.0-297.0,75,NA,NA,14,audio/syllables/AHG_AHK_3_30.wav,1,,1120,30,audio/syllables/AHG_AHK_3_30.wav,exposure,729998,297,audio-keyboard-response,syllable,NA,G,K,AH,RIGHT,
17,condition1,IHG_IHK_5_30,GD,,NA,b_group,0.0-298.0,75,NA,NA,12,audio/syllables/IHG_IHK_5_30.wav,1,,1088,30,audio/syllables/IHG_IHK_5_30.wav,exposure,732086,298,audio-keyboard-response,syllable,NA,G,K,IH,RIGHT,
17,condition1,AAG_AAK_3_04,GD,,NA,b_group,0.0-299.0,83,NA,NA,10,audio/syllables/AAG_AAK_3_04.wav,3,,1000,4,audio/syllables/AAG_AAK_3_04.wav,exposure,734086,299,audio-keyboard-response,syllable,NA,G,K,AA,RIGHT,
17,condition1,AAG_AAK_3_16,GD,,NA,b_group,0.0-300.0,75,NA,NA,10,audio/syllables/AAG_AAK_3_16.wav,2,,1040,16,audio/syllables/AAG_AAK_3_16.wav,exposure,736142,300,audio-keyboard-response,syllable,NA,G,K,AA,RIGHT,
17,condition1,IHG_IHK_5_20,GD,,NA,b_group,0.0-301.0,75,NA,NA,12,audio/syllables/IHG_IHK_5_20.wav,1,,771,20,audio/syllables/IHG_IHK_5_20.wav,exposure,737918,301,audio-keyboard-response,syllable,NA,G,K,IH,RIGHT,
17,condition1,AHG_AHK_3_25,GD,,NA,b_group,0.0-302.0,75,NA,NA,14,audio/syllables/AHG_AHK_3_25.wav,3,,1000,25,audio/syllables/AHG_AHK_3_25.wav,exposure,739926,302,audio-keyboard-response,syllable,NA,G,K,AH,RIGHT,
17,condition1,AHG_AHK_3_07,GD,,NA,b_group,0.0-303.0,83,NA,NA,14,audio/syllables/AHG_AHK_3_07.wav,3,,1760,7,audio/syllables/AHG_AHK_3_07.wav,exposure,742702,303,audio-keyboard-response,syllable,NA,G,K,AH,RIGHT,
17,condition1,IHG_IHK_5_11,GD,,NA,b_group,0.0-304.0,83,NA,NA,12,audio/syllables/IHG_IHK_5_11.wav,3,,629,11,audio/syllables/IHG_IHK_5_11.wav,exposure,744350,304,audio-keyboard-response,syllable,NA,G,K,IH,RIGHT,
17,condition1,AAG_AAK_3_04,GD,,NA,b_group,0.0-305.0,75,NA,NA,10,audio/syllables/AAG_AAK_3_04.wav,1,,1480,4,audio/syllables/AAG_AAK_3_04.wav,exposure,746830,305,audio-keyboard-response,syllable,NA,G,K,AA,RIGHT,
17,condition1,AAG_AAK_3_09,GD,,NA,b_group,0.0-306.0,83,NA,NA,10,audio/syllables/AAG_AAK_3_09.wav,3,,1379,9,audio/syllables/AAG_AAK_3_09.wav,exposure,749223,306,audio-keyboard-response,syllable,NA,G,K,AA,RIGHT,
17,condition1,IHG_IHK_5_07,GD,,NA,b_group,0.0-307.0,83,NA,NA,12,audio/syllables/IHG_IHK_5_07.wav,3,,1069,7,audio/syllables/IHG_IHK_5_07.wav,exposure,751310,307,audio-keyboard-response,syllable,NA,G,K,IH,RIGHT,
17,condition1,AHG_AHK_3_11,GD,,NA,b_group,0.0-308.0,75,NA,NA,14,audio/syllables/AHG_AHK_3_11.wav,3,,728,11,audio/syllables/AHG_AHK_3_11.wav,exposure,753054,308,audio-keyboard-response,syllable,NA,G,K,AH,RIGHT,
17,condition1,AHG_AHK_3_13,GD,,NA,b_group,0.0-309.0,75,NA,NA,14,audio/syllables/AHG_AHK_3_13.wav,1,,891,13,audio/syllables/AHG_AHK_3_13.wav,exposure,754950,309,audio-keyboard-response,syllable,NA,G,K,AH,RIGHT,
17,condition1,AAG_AAK_3_07,GD,,NA,b_group,0.0-310.0,75,NA,NA,10,audio/syllables/AAG_AAK_3_07.wav,3,,1208,7,audio/syllables/AAG_AAK_3_07.wav,exposure,757166,310,audio-keyboard-response,syllable,NA,G,K,AA,RIGHT,
17,condition1,AAG_AAK_3_16,GD,,NA,b_group,0.0-311.0,83,NA,NA,10,audio/syllables/AAG_AAK_3_16.wav,3,,909,16,audio/syllables/AAG_AAK_3_16.wav,exposure,759094,311,audio-keyboard-response,syllable,NA,G,K,AA,RIGHT,
17,condition1,AAG_AAK_3_13,GD,,NA,b_group,0.0-312.0,83,NA,NA,10,audio/syllables/AAG_AAK_3_13.wav,2,,1040,13,audio/syllables/AAG_AAK_3_13.wav,exposure,761143,312,audio-keyboard-response,syllable,NA,G,K,AA,RIGHT,
17,condition1,AHG_AHK_3_09,GD,,NA,b_group,0.0-313.0,83,NA,NA,14,audio/syllables/AHG_AHK_3_09.wav,3,,1859,9,audio/syllables/AHG_AHK_3_09.wav,exposure,764014,313,audio-keyboard-response,syllable,NA,G,K,AH,RIGHT,
17,condition1,IHG_IHK_5_04,GD,,NA,b_group,0.0-314.0,83,NA,NA,12,audio/syllables/IHG_IHK_5_04.wav,2,,821,4,audio/syllables/IHG_IHK_5_04.wav,exposure,765846,314,audio-keyboard-response,syllable,NA,G,K,IH,RIGHT,
17,condition1,AAG_AAK_3_07,GD,,NA,b_group,0.0-315.0,83,NA,NA,10,audio/syllables/AAG_AAK_3_07.wav,2,,869,7,audio/syllables/AAG_AAK_3_07.wav,exposure,767726,315,audio-keyboard-response,syllable,NA,G,K,AA,RIGHT,
17,condition1,AAG_AAK_3_04,GD,,NA,b_group,0.0-316.0,83,NA,NA,10,audio/syllables/AAG_AAK_3_04.wav,2,,872,4,audio/syllables/AAG_AAK_3_04.wav,exposure,769598,316,audio-keyboard-response,syllable,NA,G,K,AA,RIGHT,
17,condition1,AAG_AAK_3_30,GD,,NA,b_group,0.0-317.0,75,NA,NA,10,audio/syllables/AAG_AAK_3_30.wav,3,,1168,30,audio/syllables/AAG_AAK_3_30.wav,exposure,771766,317,audio-keyboard-response,syllable,NA,G,K,AA,RIGHT,
17,condition1,IHG_IHK_5_00,GD,,NA,b_group,0.0-318.0,83,NA,NA,12,audio/syllables/IHG_IHK_5_00.wav,3,,800,0,audio/syllables/IHG_IHK_5_00.wav,exposure,773566,318,audio-keyboard-response,syllable,NA,G,K,IH,RIGHT,
17,condition1,AHG_AHK_3_16,GD,,NA,b_group,0.0-319.0,75,NA,NA,14,audio/syllables/AHG_AHK_3_16.wav,3,,691,16,audio/syllables/AHG_AHK_3_16.wav,exposure,775262,319,audio-keyboard-response,syllable,NA,G,K,AH,RIGHT,
17,condition1,IHG_IHK_5_20,GD,,NA,b_group,0.0-320.0,75,NA,NA,12,audio/syllables/IHG_IHK_5_20.wav,2,,1069,20,audio/syllables/IHG_IHK_5_20.wav,exposure,777350,320,audio-keyboard-response,syllable,NA,G,K,IH,RIGHT,
17,condition1,UHG_UHK_5_07,GD,,NA,b_group,0.0-321.0,83,NA,NA,6,audio/syllables/UHG_UHK_5_07.wav,3,,1560,7,audio/syllables/UHG_UHK_5_07.wav,exposure,779918,321,audio-keyboard-response,syllable,NA,G,K,UH,RIGHT,
17,condition1,UHG_UHK_5_04,GD,,NA,b_group,0.0-322.0,83,NA,NA,6,audio/syllables/UHG_UHK_5_04.wav,1,,1019,4,audio/syllables/UHG_UHK_5_04.wav,exposure,781943,322,audio-keyboard-response,syllable,NA,G,K,UH,RIGHT,
17,condition1,UHG_UHK_5_30,GD,,NA,b_group,0.0-323.0,75,NA,NA,6,audio/syllables/UHG_UHK_5_30.wav,2,,960,30,audio/syllables/UHG_UHK_5_30.wav,exposure,783911,323,audio-keyboard-response,syllable,NA,G,K,UH,RIGHT,
17,condition1,AHG_AHK_3_07,GD,,NA,b_group,0.0-324.0,83,NA,NA,14,audio/syllables/AHG_AHK_3_07.wav,2,,1560,7,audio/syllables/AHG_AHK_3_07.wav,exposure,786479,324,audio-keyboard-response,syllable,NA,G,K,AH,RIGHT,
17,condition1,AHG_AHK_3_00,GD,,NA,b_group,0.0-325.0,83,NA,NA,14,audio/syllables/AHG_AHK_3_00.wav,2,,1731,0,audio/syllables/AHG_AHK_3_00.wav,exposure,789223,325,audio-keyboard-response,syllable,NA,G,K,AH,RIGHT,
17,condition1,AHG_AHK_3_20,GD,,NA,b_group,0.0-326.0,75,NA,NA,14,audio/syllables/AHG_AHK_3_20.wav,2,,789,20,audio/syllables/AHG_AHK_3_20.wav,exposure,791015,326,audio-keyboard-response,syllable,NA,G,K,AH,RIGHT,
17,condition1,AAG_AAK_3_25,GD,,NA,b_group,0.0-327.0,83,NA,NA,10,audio/syllables/AAG_AAK_3_25.wav,2,,1109,25,audio/syllables/AAG_AAK_3_25.wav,exposure,793135,327,audio-keyboard-response,syllable,NA,G,K,AA,RIGHT,
17,condition1,UHG_UHK_5_00,GD,,NA,b_group,0.0-328.0,83,NA,NA,6,audio/syllables/UHG_UHK_5_00.wav,2,,1600,0,audio/syllables/UHG_UHK_5_00.wav,exposure,795743,328,audio-keyboard-response,syllable,NA,G,K,UH,RIGHT,
17,condition1,AAG_AAK_3_20,GD,,NA,b_group,0.0-329.0,75,NA,NA,10,audio/syllables/AAG_AAK_3_20.wav,3,,1051,20,audio/syllables/AAG_AAK_3_20.wav,exposure,797791,329,audio-keyboard-response,syllable,NA,G,K,AA,RIGHT,
17,condition1,UHG_UHK_5_25,GD,,NA,b_group,0.0-330.0,75,NA,NA,6,audio/syllables/UHG_UHK_5_25.wav,3,,888,25,audio/syllables/UHG_UHK_5_25.wav,exposure,799695,330,audio-keyboard-response,syllable,NA,G,K,UH,RIGHT,
17,condition1,UHG_UHK_5_09,GD,,NA,b_group,0.0-331.0,75,NA,NA,6,audio/syllables/UHG_UHK_5_09.wav,3,,1411,9,audio/syllables/UHG_UHK_5_09.wav,exposure,802111,331,audio-keyboard-response,syllable,NA,G,K,UH,RIGHT,
17,condition1,UHG_UHK_5_16,GD,,NA,b_group,0.0-332.0,75,NA,NA,6,audio/syllables/UHG_UHK_5_16.wav,1,,909,16,audio/syllables/UHG_UHK_5_16.wav,exposure,804031,332,audio-keyboard-response,syllable,NA,G,K,UH,RIGHT,
17,condition1,AAG_AAK_3_00,GD,,NA,b_group,0.0-333.0,83,NA,NA,10,audio/syllables/AAG_AAK_3_00.wav,1,,1280,0,audio/syllables/AAG_AAK_3_00.wav,exposure,806318,333,audio-keyboard-response,syllable,NA,G,K,AA,RIGHT,
17,condition1,IHG_IHK_5_16,GD,,NA,b_group,0.0-334.0,75,NA,NA,12,audio/syllables/IHG_IHK_5_16.wav,2,,1200,16,audio/syllables/IHG_IHK_5_16.wav,exposure,808518,334,audio-keyboard-response,syllable,NA,G,K,IH,RIGHT,
17,condition1,AHG_AHK_3_04,GD,,NA,b_group,0.0-335.0,83,NA,NA,14,audio/syllables/AHG_AHK_3_04.wav,3,,1320,4,audio/syllables/AHG_AHK_3_04.wav,exposure,810838,335,audio-keyboard-response,syllable,NA,G,K,AH,RIGHT,
17,condition1,AAG_AAK_3_07,GD,,NA,b_group,0.0-336.0,83,NA,NA,10,audio/syllables/AAG_AAK_3_07.wav,1,,1109,7,audio/syllables/AAG_AAK_3_07.wav,exposure,812950,336,audio-keyboard-response,syllable,NA,G,K,AA,RIGHT,
17,condition1,AAG_AAK_3_13,GD,,NA,b_group,0.0-337.0,83,NA,NA,10,audio/syllables/AAG_AAK_3_13.wav,3,,928,13,audio/syllables/AAG_AAK_3_13.wav,exposure,814887,337,audio-keyboard-response,syllable,NA,G,K,AA,RIGHT,
17,condition1,AHG_AHK_3_09,GD,,NA,b_group,0.0-338.0,83,NA,NA,14,audio/syllables/AHG_AHK_3_09.wav,1,,1240,9,audio/syllables/AHG_AHK_3_09.wav,exposure,817134,338,audio-keyboard-response,syllable,NA,G,K,AH,RIGHT,
17,condition1,AAG_AAK_3_09,GD,,NA,b_group,0.0-339.0,83,NA,NA,10,audio/syllables/AAG_AAK_3_09.wav,1,,1389,9,audio/syllables/AAG_AAK_3_09.wav,exposure,819542,339,audio-keyboard-response,syllable,NA,G,K,AA,RIGHT,
17,condition1,IHG_IHK_5_04,GD,,NA,b_group,0.0-340.0,83,NA,NA,12,audio/syllables/IHG_IHK_5_04.wav,1,,1171,4,audio/syllables/IHG_IHK_5_04.wav,exposure,821718,340,audio-keyboard-response,syllable,NA,G,K,IH,RIGHT,
17,condition1,IHG_IHK_5_20,GD,,NA,b_group,0.0-341.0,75,NA,NA,12,audio/syllables/IHG_IHK_5_20.wav,3,,781,20,audio/syllables/IHG_IHK_5_20.wav,exposure,823510,341,audio-keyboard-response,syllable,NA,G,K,IH,RIGHT,
17,condition1,IHG_IHK_5_11,GD,,NA,b_group,0.0-342.0,83,NA,NA,12,audio/syllables/IHG_IHK_5_11.wav,2,,960,11,audio/syllables/IHG_IHK_5_11.wav,exposure,825495,342,audio-keyboard-response,syllable,NA,G,K,IH,RIGHT,
17,condition1,UHG_UHK_5_13,GD,,NA,b_group,0.0-343.0,75,NA,NA,6,audio/syllables/UHG_UHK_5_13.wav,1,,840,13,audio/syllables/UHG_UHK_5_13.wav,exposure,827342,343,audio-keyboard-response,syllable,NA,G,K,UH,RIGHT,
17,condition1,IHG_IHK_5_04,GD,,NA,b_group,0.0-344.0,83,NA,NA,12,audio/syllables/IHG_IHK_5_04.wav,3,,1688,4,audio/syllables/IHG_IHK_5_04.wav,exposure,830046,344,audio-keyboard-response,syllable,NA,G,K,IH,RIGHT,
17,condition1,,,,,,0.0-345.0,32,,,,,,,4453.600000124425,,"<div class=""pre-test-container""><p>Great job! One more round. This time you will hear syllables like <em>ahd</em> or <em>aht</em>.<br><br>Select the sound that started the syllable by pressing S or K.<br><br>Press the space bar to continue.</p></div>",,835502,345,html-keyboard-response,,,,,,,
17,condition1,UHD_UHT_5_13,GD,,NA,b_group,0.0-346.0,75,NA,NA,11,audio/syllables/UHD_UHT_5_13.wav,1,,1709,13,audio/syllables/UHD_UHT_5_13.wav,exposure,838222,346,audio-keyboard-response,syllable,NA,D,T,UH,RIGHT,
17,condition1,AHD_AHT_3_00,GD,,NA,b_group,0.0-347.0,83,NA,NA,17,audio/syllables/AHD_AHT_3_00.wav,3,,1019,0,audio/syllables/AHD_AHT_3_00.wav,exposure,840254,347,audio-keyboard-response,syllable,NA,D,T,AH,RIGHT,
17,condition1,AHD_AHT_3_00,GD,,NA,b_group,0.0-348.0,83,NA,NA,17,audio/syllables/AHD_AHT_3_00.wav,2,,811,0,audio/syllables/AHD_AHT_3_00.wav,exposure,842071,348,audio-keyboard-response,syllable,NA,D,T,AH,RIGHT,
17,condition1,AHD_AHT_3_11,GD,,NA,b_group,0.0-349.0,83,NA,NA,17,audio/syllables/AHD_AHT_3_11.wav,1,,800,11,audio/syllables/AHD_AHT_3_11.wav,exposure,843871,349,audio-keyboard-response,syllable,NA,D,T,AH,RIGHT,
17,condition1,AHD_AHT_3_13,GD,,NA,b_group,0.0-350.0,83,NA,NA,17,audio/syllables/AHD_AHT_3_13.wav,1,,1379,13,audio/syllables/AHD_AHT_3_13.wav,exposure,846263,350,audio-keyboard-response,syllable,NA,D,T,AH,RIGHT,
17,condition1,AAD_AAT_5_13,GD,,NA,b_group,0.0-351.0,75,NA,NA,14,audio/syllables/AAD_AAT_5_13.wav,3,,2299,13,audio/syllables/AAD_AAT_5_13.wav,exposure,849567,351,audio-keyboard-response,syllable,NA,D,T,AA,RIGHT,
17,condition1,IHD_IHT_3_25,GD,,NA,b_group,0.0-352.0,75,NA,NA,14,audio/syllables/IHD_IHT_3_25.wav,3,,992,25,audio/syllables/IHD_IHT_3_25.wav,exposure,851559,352,audio-keyboard-response,syllable,NA,D,T,IH,RIGHT,
17,condition1,AAD_AAT_5_16,GD,,NA,b_group,0.0-353.0,75,NA,NA,14,audio/syllables/AAD_AAT_5_16.wav,3,,1640,16,audio/syllables/AAD_AAT_5_16.wav,exposure,854199,353,audio-keyboard-response,syllable,NA,D,T,AA,RIGHT,
17,condition1,UHD_UHT_5_04,GD,,NA,b_group,0.0-354.0,83,NA,NA,11,audio/syllables/UHD_UHT_5_04.wav,3,,888,4,audio/syllables/UHD_UHT_5_04.wav,exposure,856095,354,audio-keyboard-response,syllable,NA,D,T,UH,RIGHT,
17,condition1,UHD_UHT_5_00,GD,,NA,b_group,0.0-355.0,75,NA,NA,11,audio/syllables/UHD_UHT_5_00.wav,2,,981,0,audio/syllables/UHD_UHT_5_00.wav,exposure,858080,355,audio-keyboard-response,syllable,NA,D,T,UH,RIGHT,
17,condition1,AAD_AAT_5_00,GD,,NA,b_group,0.0-356.0,83,NA,NA,14,audio/syllables/AAD_AAT_5_00.wav,2,,1112,0,audio/syllables/AAD_AAT_5_00.wav,exposure,860199,356,audio-keyboard-response,syllable,NA,D,T,AA,RIGHT,
17,condition1,AAD_AAT_5_13,GD,,NA,b_group,0.0-357.0,75,NA,NA,14,audio/syllables/AAD_AAT_5_13.wav,2,,1000,13,audio/syllables/AAD_AAT_5_13.wav,exposure,862207,357,audio-keyboard-response,syllable,NA,D,T,AA,RIGHT,
17,condition1,UHD_UHT_5_16,GD,,NA,b_group,0.0-358.0,75,NA,NA,11,audio/syllables/UHD_UHT_5_16.wav,1,,1840,16,audio/syllables/UHD_UHT_5_16.wav,exposure,865055,358,audio-keyboard-response,syllable,NA,D,T,UH,RIGHT,
17,condition1,AHD_AHT_3_09,GD,,NA,b_group,0.0-359.0,83,NA,NA,17,audio/syllables/AHD_AHT_3_09.wav,3,,1099,9,audio/syllables/AHD_AHT_3_09.wav,exposure,867175,359,audio-keyboard-response,syllable,NA,D,T,AH,RIGHT,
17,condition1,UHD_UHT_5_30,GD,,NA,b_group,0.0-360.0,75,NA,NA,11,audio/syllables/UHD_UHT_5_30.wav,3,,1571,30,audio/syllables/UHD_UHT_5_30.wav,exposure,869751,360,audio-keyboard-response,syllable,NA,D,T,UH,RIGHT,
17,condition1,IHD_IHT_3_00,GD,,NA,b_group,0.0-361.0,83,NA,NA,14,audio/syllables/IHD_IHT_3_00.wav,1,,851,0,audio/syllables/IHD_IHT_3_00.wav,exposure,871599,361,audio-keyboard-response,syllable,NA,D,T,IH,RIGHT,
17,condition1,IHD_IHT_3_30,GD,,NA,b_group,0.0-362.0,75,NA,NA,14,audio/syllables/IHD_IHT_3_30.wav,1,,880,30,audio/syllables/IHD_IHT_3_30.wav,exposure,873479,362,audio-keyboard-response,syllable,NA,D,T,IH,RIGHT,
17,condition1,IHD_IHT_3_11,GD,,NA,b_group,0.0-363.0,83,NA,NA,14,audio/syllables/IHD_IHT_3_11.wav,1,,1309,11,audio/syllables/IHD_IHT_3_11.wav,exposure,875791,363,audio-keyboard-response,syllable,NA,D,T,IH,RIGHT,
17,condition1,AAD_AAT_5_11,GD,,NA,b_group,0.0-364.0,83,NA,NA,14,audio/syllables/AAD_AAT_5_11.wav,1,,1480,11,audio/syllables/AAD_AAT_5_11.wav,exposure,878278,364,audio-keyboard-response,syllable,NA,D,T,AA,RIGHT,
17,condition1,UHD_UHT_5_20,GD,,NA,b_group,0.0-365.0,75,NA,NA,11,audio/syllables/UHD_UHT_5_20.wav,2,,1800,20,audio/syllables/UHD_UHT_5_20.wav,exposure,881087,365,audio-keyboard-response,syllable,NA,D,T,UH,RIGHT,
17,condition1,UHD_UHT_5_11,GD,,NA,b_group,0.0-366.0,75,NA,NA,11,audio/syllables/UHD_UHT_5_11.wav,1,,1349,11,audio/syllables/UHD_UHT_5_11.wav,exposure,883455,366,audio-keyboard-response,syllable,NA,D,T,UH,RIGHT,
17,condition1,AAD_AAT_5_16,GD,,NA,b_group,0.0-367.0,75,NA,NA,14,audio/syllables/AAD_AAT_5_16.wav,2,,1189,16,audio/syllables/AAD_AAT_5_16.wav,exposure,885654,367,audio-keyboard-response,syllable,NA,D,T,AA,RIGHT,
17,condition1,UHD_UHT_5_30,GD,,NA,b_group,0.0-368.0,75,NA,NA,11,audio/syllables/UHD_UHT_5_30.wav,1,,1451,30,audio/syllables/UHD_UHT_5_30.wav,exposure,888110,368,audio-keyboard-response,syllable,NA,D,T,UH,RIGHT,
17,condition1,AHD_AHT_3_16,GD,,NA,b_group,0.0-369.0,75,NA,NA,17,audio/syllables/AHD_AHT_3_16.wav,3,,920,16,audio/syllables/AHD_AHT_3_16.wav,exposure,890054,369,audio-keyboard-response,syllable,NA,D,T,AH,RIGHT,
17,condition1,IHD_IHT_3_09,GD,,NA,b_group,0.0-370.0,75,NA,NA,14,audio/syllables/IHD_IHT_3_09.wav,3,,829,9,audio/syllables/IHD_IHT_3_09.wav,exposure,891887,370,audio-keyboard-response,syllable,NA,D,T,IH,RIGHT,
17,condition1,IHD_IHT_3_20,GD,,NA,b_group,0.0-371.0,75,NA,NA,14,audio/syllables/IHD_IHT_3_20.wav,3,,1291,20,audio/syllables/IHD_IHT_3_20.wav,exposure,894190,371,audio-keyboard-response,syllable,NA,D,T,IH,RIGHT,
17,condition1,UHD_UHT_5_09,GD,,NA,b_group,0.0-372.0,75,NA,NA,11,audio/syllables/UHD_UHT_5_09.wav,2,,669,9,audio/syllables/UHD_UHT_5_09.wav,exposure,895862,372,audio-keyboard-response,syllable,NA,D,T,UH,RIGHT,
17,condition1,UHD_UHT_5_25,GD,,NA,b_group,0.0-373.0,75,NA,NA,11,audio/syllables/UHD_UHT_5_25.wav,1,,731,25,audio/syllables/UHD_UHT_5_25.wav,exposure,897598,373,audio-keyboard-response,syllable,NA,D,T,UH,RIGHT,
17,condition1,IHD_IHT_3_16,GD,,NA,b_group,0.0-374.0,75,NA,NA,14,audio/syllables/IHD_IHT_3_16.wav,1,,680,16,audio/syllables/IHD_IHT_3_16.wav,exposure,899278,374,audio-keyboard-response,syllable,NA,D,T,IH,RIGHT,
17,condition1,AHD_AHT_3_16,GD,,NA,b_group,0.0-375.0,75,NA,NA,17,audio/syllables/AHD_AHT_3_16.wav,1,,640,16,audio/syllables/AHD_AHT_3_16.wav,exposure,900927,375,audio-keyboard-response,syllable,NA,D,T,AH,RIGHT,
17,condition1,AAD_AAT_5_04,GD,,NA,b_group,0.0-376.0,75,NA,NA,14,audio/syllables/AAD_AAT_5_04.wav,1,,629,4,audio/syllables/AAD_AAT_5_04.wav,exposure,902567,376,audio-keyboard-response,syllable,NA,D,T,AA,RIGHT,
17,condition1,IHD_IHT_3_04,GD,,NA,b_group,0.0-377.0,83,NA,NA,14,audio/syllables/IHD_IHT_3_04.wav,1,,949,4,audio/syllables/IHD_IHT_3_04.wav,exposure,904535,377,audio-keyboard-response,syllable,NA,D,T,IH,RIGHT,
17,condition1,IHD_IHT_3_09,GD,,NA,b_group,0.0-378.0,75,NA,NA,14,audio/syllables/IHD_IHT_3_09.wav,2,,1059,9,audio/syllables/IHD_IHT_3_09.wav,exposure,906607,378,audio-keyboard-response,syllable,NA,D,T,IH,RIGHT,
17,condition1,UHD_UHT_5_00,GD,,NA,b_group,0.0-379.0,83,NA,NA,11,audio/syllables/UHD_UHT_5_00.wav,1,,992,0,audio/syllables/UHD_UHT_5_00.wav,exposure,908599,379,audio-keyboard-response,syllable,NA,D,T,UH,RIGHT,
17,condition1,AHD_AHT_3_11,GD,,NA,b_group,0.0-380.0,75,NA,NA,17,audio/syllables/AHD_AHT_3_11.wav,3,,792,11,audio/syllables/AHD_AHT_3_11.wav,exposure,910399,380,audio-keyboard-response,syllable,NA,D,T,AH,RIGHT,
17,condition1,UHD_UHT_5_20,GD,,NA,b_group,0.0-381.0,75,NA,NA,11,audio/syllables/UHD_UHT_5_20.wav,1,,1240,20,audio/syllables/UHD_UHT_5_20.wav,exposure,912648,381,audio-keyboard-response,syllable,NA,D,T,UH,RIGHT,
17,condition1,UHD_UHT_5_13,GD,,NA,b_group,0.0-382.0,75,NA,NA,11,audio/syllables/UHD_UHT_5_13.wav,2,,811,13,audio/syllables/UHD_UHT_5_13.wav,exposure,914471,382,audio-keyboard-response,syllable,NA,D,T,UH,RIGHT,
17,condition1,AHD_AHT_3_25,GD,,NA,b_group,0.0-383.0,75,NA,NA,17,audio/syllables/AHD_AHT_3_25.wav,2,,1029,25,audio/syllables/AHD_AHT_3_25.wav,exposure,916503,383,audio-keyboard-response,syllable,NA,D,T,AH,RIGHT,
17,condition1,AAD_AAT_5_20,GD,,NA,b_group,0.0-384.0,75,NA,NA,14,audio/syllables/AAD_AAT_5_20.wav,3,,2160,20,audio/syllables/AAD_AAT_5_20.wav,exposure,919671,384,audio-keyboard-response,syllable,NA,D,T,AA,RIGHT,
17,condition1,AHD_AHT_3_20,GD,,NA,b_group,0.0-385.0,75,NA,NA,17,audio/syllables/AHD_AHT_3_20.wav,3,,888,20,audio/syllables/AHD_AHT_3_20.wav,exposure,921567,385,audio-keyboard-response,syllable,NA,D,T,AH,RIGHT,
17,condition1,AHD_AHT_3_00,GD,,NA,b_group,0.0-386.0,83,NA,NA,17,audio/syllables/AHD_AHT_3_00.wav,1,,3840,0,audio/syllables/AHD_AHT_3_00.wav,exposure,926415,386,audio-keyboard-response,syllable,NA,D,T,AH,RIGHT,
17,condition1,UHD_UHT_5_13,GD,,NA,b_group,0.0-387.0,75,NA,NA,11,audio/syllables/UHD_UHT_5_13.wav,3,,981,13,audio/syllables/UHD_UHT_5_13.wav,exposure,928407,387,audio-keyboard-response,syllable,NA,D,T,UH,RIGHT,
17,condition1,UHD_UHT_5_07,GD,,NA,b_group,0.0-388.0,83,NA,NA,11,audio/syllables/UHD_UHT_5_07.wav,3,,1141,7,audio/syllables/UHD_UHT_5_07.wav,exposure,930559,388,audio-keyboard-response,syllable,NA,D,T,UH,RIGHT,
17,condition1,AAD_AAT_5_04,GD,,NA,b_group,0.0-389.0,75,NA,NA,14,audio/syllables/AAD_AAT_5_04.wav,2,,651,4,audio/syllables/AAD_AAT_5_04.wav,exposure,932222,389,audio-keyboard-response,syllable,NA,D,T,AA,RIGHT,
17,condition1,IHD_IHT_3_04,GD,,NA,b_group,0.0-390.0,83,NA,NA,14,audio/syllables/IHD_IHT_3_04.wav,3,,1109,4,audio/syllables/IHD_IHT_3_04.wav,exposure,934342,390,audio-keyboard-response,syllable,NA,D,T,IH,RIGHT,
17,condition1,AAD_AAT_5_07,GD,,NA,b_group,0.0-391.0,83,NA,NA,14,audio/syllables/AAD_AAT_5_07.wav,1,,1059,7,audio/syllables/AAD_AAT_5_07.wav,exposure,936407,391,audio-keyboard-response,syllable,NA,D,T,AA,RIGHT,
17,condition1,IHD_IHT_3_20,GD,,NA,b_group,0.0-392.0,75,NA,NA,14,audio/syllables/IHD_IHT_3_20.wav,2,,792,20,audio/syllables/IHD_IHT_3_20.wav,exposure,938199,392,audio-keyboard-response,syllable,NA,D,T,IH,RIGHT,
17,condition1,UHD_UHT_5_04,GD,,NA,b_group,0.0-393.0,83,NA,NA,11,audio/syllables/UHD_UHT_5_04.wav,2,,851,4,audio/syllables/UHD_UHT_5_04.wav,exposure,940070,393,audio-keyboard-response,syllable,NA,D,T,UH,RIGHT,
17,condition1,AAD_AAT_5_13,GD,,NA,b_group,0.0-394.0,83,NA,NA,14,audio/syllables/AAD_AAT_5_13.wav,1,,1720,13,audio/syllables/AAD_AAT_5_13.wav,exposure,942790,394,audio-keyboard-response,syllable,NA,D,T,AA,RIGHT,
17,condition1,UHD_UHT_5_07,GD,,NA,b_group,0.0-395.0,83,NA,NA,11,audio/syllables/UHD_UHT_5_07.wav,1,,1339,7,audio/syllables/UHD_UHT_5_07.wav,exposure,945142,395,audio-keyboard-response,syllable,NA,D,T,UH,RIGHT,
17,condition1,AHD_AHT_3_04,GD,,NA,b_group,0.0-396.0,83,NA,NA,17,audio/syllables/AHD_AHT_3_04.wav,2,,949,4,audio/syllables/AHD_AHT_3_04.wav,exposure,947102,396,audio-keyboard-response,syllable,NA,D,T,AH,RIGHT,
17,condition1,IHD_IHT_3_04,GD,,NA,b_group,0.0-397.0,83,NA,NA,14,audio/syllables/IHD_IHT_3_04.wav,2,,1488,4,audio/syllables/IHD_IHT_3_04.wav,exposure,949615,397,audio-keyboard-response,syllable,NA,D,T,IH,RIGHT,
17,condition1,IHD_IHT_3_07,GD,,NA,b_group,0.0-398.0,83,NA,NA,14,audio/syllables/IHD_IHT_3_07.wav,3,,789,7,audio/syllables/IHD_IHT_3_07.wav,exposure,951422,398,audio-keyboard-response,syllable,NA,D,T,IH,RIGHT,
17,condition1,IHD_IHT_3_11,GD,,NA,b_group,0.0-399.0,75,NA,NA,14,audio/syllables/IHD_IHT_3_11.wav,2,,779,11,audio/syllables/IHD_IHT_3_11.wav,exposure,953206,399,audio-keyboard-response,syllable,NA,D,T,IH,RIGHT,
17,condition1,IHD_IHT_3_11,GD,,NA,b_group,0.0-400.0,75,NA,NA,14,audio/syllables/IHD_IHT_3_11.wav,3,,1080,11,audio/syllables/IHD_IHT_3_11.wav,exposure,955302,400,audio-keyboard-response,syllable,NA,D,T,IH,RIGHT,
17,condition1,AHD_AHT_3_07,GD,,NA,b_group,0.0-401.0,83,NA,NA,17,audio/syllables/AHD_AHT_3_07.wav,1,,1701,7,audio/syllables/AHD_AHT_3_07.wav,exposure,957998,401,audio-keyboard-response,syllable,NA,D,T,AH,RIGHT,
17,condition1,UHD_UHT_5_09,GD,,NA,b_group,0.0-402.0,83,NA,NA,11,audio/syllables/UHD_UHT_5_09.wav,3,,1291,9,audio/syllables/UHD_UHT_5_09.wav,exposure,960303,402,audio-keyboard-response,syllable,NA,D,T,UH,RIGHT,
17,condition1,UHD_UHT_5_25,GD,,NA,b_group,0.0-403.0,75,NA,NA,11,audio/syllables/UHD_UHT_5_25.wav,3,,939,25,audio/syllables/UHD_UHT_5_25.wav,exposure,962246,403,audio-keyboard-response,syllable,NA,D,T,UH,RIGHT,
17,condition1,AHD_AHT_3_07,GD,,NA,b_group,0.0-404.0,75,NA,NA,17,audio/syllables/AHD_AHT_3_07.wav,3,,1640,7,audio/syllables/AHD_AHT_3_07.wav,exposure,964888,404,audio-keyboard-response,syllable,NA,D,T,AH,RIGHT,
17,condition1,AAD_AAT_5_07,GD,,NA,b_group,0.0-405.0,83,NA,NA,14,audio/syllables/AAD_AAT_5_07.wav,3,,1051,7,audio/syllables/AAD_AAT_5_07.wav,exposure,966952,405,audio-keyboard-response,syllable,NA,D,T,AA,RIGHT,
17,condition1,IHD_IHT_3_25,GD,,NA,b_group,0.0-406.0,75,NA,NA,14,audio/syllables/IHD_IHT_3_25.wav,2,,829,25,audio/syllables/IHD_IHT_3_25.wav,exposure,968792,406,audio-keyboard-response,syllable,NA,D,T,IH,RIGHT,
17,condition1,UHD_UHT_5_30,GD,,NA,b_group,0.0-407.0,75,NA,NA,11,audio/syllables/UHD_UHT_5_30.wav,2,,1819,30,audio/syllables/UHD_UHT_5_30.wav,exposure,971624,407,audio-keyboard-response,syllable,NA,D,T,UH,RIGHT,
17,condition1,AHD_AHT_3_30,GD,,NA,b_group,0.0-408.0,75,NA,NA,17,audio/syllables/AHD_AHT_3_30.wav,2,,1251,30,audio/syllables/AHD_AHT_3_30.wav,exposure,973880,408,audio-keyboard-response,syllable,NA,D,T,AH,RIGHT,
17,condition1,UHD_UHT_5_11,GD,,NA,b_group,0.0-409.0,75,NA,NA,11,audio/syllables/UHD_UHT_5_11.wav,2,,712,11,audio/syllables/UHD_UHT_5_11.wav,exposure,975600,409,audio-keyboard-response,syllable,NA,D,T,UH,RIGHT,
17,condition1,UHD_UHT_5_16,GD,,NA,b_group,0.0-410.0,75,NA,NA,11,audio/syllables/UHD_UHT_5_16.wav,2,,1000,16,audio/syllables/UHD_UHT_5_16.wav,exposure,977608,410,audio-keyboard-response,syllable,NA,D,T,UH,RIGHT,
17,condition1,AAD_AAT_5_11,GD,,NA,b_group,0.0-411.0,83,NA,NA,14,audio/syllables/AAD_AAT_5_11.wav,3,,901,11,audio/syllables/AAD_AAT_5_11.wav,exposure,979520,411,audio-keyboard-response,syllable,NA,D,T,AA,RIGHT,
17,condition1,UHD_UHT_5_00,GD,,NA,b_group,0.0-412.0,75,NA,NA,11,audio/syllables/UHD_UHT_5_00.wav,3,,648,0,audio/syllables/UHD_UHT_5_00.wav,exposure,981176,412,audio-keyboard-response,syllable,NA,D,T,UH,RIGHT,
17,condition1,AAD_AAT_5_20,GD,,NA,b_group,0.0-413.0,75,NA,NA,14,audio/syllables/AAD_AAT_5_20.wav,2,,1051,20,audio/syllables/AAD_AAT_5_20.wav,exposure,983232,413,audio-keyboard-response,syllable,NA,D,T,AA,RIGHT,
17,condition1,UHD_UHT_5_16,GD,,NA,b_group,0.0-414.0,75,NA,NA,11,audio/syllables/UHD_UHT_5_16.wav,3,,659,16,audio/syllables/UHD_UHT_5_16.wav,exposure,984904,414,audio-keyboard-response,syllable,NA,D,T,UH,RIGHT,
17,condition1,AHD_AHT_3_09,GD,,NA,b_group,0.0-415.0,75,NA,NA,17,audio/syllables/AHD_AHT_3_09.wav,2,,1488,9,audio/syllables/AHD_AHT_3_09.wav,exposure,987408,415,audio-keyboard-response,syllable,NA,D,T,AH,RIGHT,
17,condition1,AAD_AAT_5_30,GD,,NA,b_group,0.0-416.0,75,NA,NA,14,audio/syllables/AAD_AAT_5_30.wav,1,,872,30,audio/syllables/AAD_AAT_5_30.wav,exposure,989279,416,audio-keyboard-response,syllable,NA,D,T,AA,RIGHT,
17,condition1,UHD_UHT_5_20,GD,,NA,b_group,0.0-417.0,75,NA,NA,11,audio/syllables/UHD_UHT_5_20.wav,3,,1088,20,audio/syllables/UHD_UHT_5_20.wav,exposure,991368,417,audio-keyboard-response,syllable,NA,D,T,UH,RIGHT,
17,condition1,UHD_UHT_5_04,GD,,NA,b_group,0.0-418.0,83,NA,NA,11,audio/syllables/UHD_UHT_5_04.wav,1,,1061,4,audio/syllables/UHD_UHT_5_04.wav,exposure,993432,418,audio-keyboard-response,syllable,NA,D,T,UH,RIGHT,
17,condition1,UHD_UHT_5_07,GD,,NA,b_group,0.0-419.0,83,NA,NA,11,audio/syllables/UHD_UHT_5_07.wav,2,,1040,7,audio/syllables/UHD_UHT_5_07.wav,exposure,995495,419,audio-keyboard-response,syllable,NA,D,T,UH,RIGHT,
17,condition1,AHD_AHT_3_20,GD,,NA,b_group,0.0-420.0,75,NA,NA,17,audio/syllables/AHD_AHT_3_20.wav,2,,781,20,audio/syllables/AHD_AHT_3_20.wav,exposure,997279,420,audio-keyboard-response,syllable,NA,D,T,AH,RIGHT,
17,condition1,AAD_AAT_5_04,GD,,NA,b_group,0.0-421.0,83,NA,NA,14,audio/syllables/AAD_AAT_5_04.wav,3,,851,4,audio/syllables/AAD_AAT_5_04.wav,exposure,999144,421,audio-keyboard-response,syllable,NA,D,T,AA,RIGHT,
17,condition1,IHD_IHT_3_13,GD,,NA,b_group,0.0-422.0,75,NA,NA,14,audio/syllables/IHD_IHT_3_13.wav,1,,739,13,audio/syllables/IHD_IHT_3_13.wav,exposure,1000895,422,audio-keyboard-response,syllable,NA,D,T,IH,RIGHT,
17,condition1,AAD_AAT_5_11,GD,,NA,b_group,0.0-423.0,75,NA,NA,14,audio/syllables/AAD_AAT_5_11.wav,2,,781,11,audio/syllables/AAD_AAT_5_11.wav,exposure,1002679,423,audio-keyboard-response,syllable,NA,D,T,AA,RIGHT,
17,condition1,AHD_AHT_3_20,GD,,NA,b_group,0.0-424.0,75,NA,NA,17,audio/syllables/AHD_AHT_3_20.wav,1,,688,20,audio/syllables/AHD_AHT_3_20.wav,exposure,1004368,424,audio-keyboard-response,syllable,NA,D,T,AH,RIGHT,
17,condition1,IHD_IHT_3_30,GD,,NA,b_group,0.0-425.0,75,NA,NA,14,audio/syllables/IHD_IHT_3_30.wav,3,,1821,30,audio/syllables/IHD_IHT_3_30.wav,exposure,1007191,425,audio-keyboard-response,syllable,NA,D,T,IH,RIGHT,
17,condition1,UHD_UHT_5_25,GD,,NA,b_group,0.0-426.0,75,NA,NA,11,audio/syllables/UHD_UHT_5_25.wav,2,,968,25,audio/syllables/UHD_UHT_5_25.wav,exposure,1009175,426,audio-keyboard-response,syllable,NA,D,T,UH,RIGHT,
17,condition1,AAD_AAT_5_00,GD,,NA,b_group,0.0-427.0,83,NA,NA,14,audio/syllables/AAD_AAT_5_00.wav,1,,760,0,audio/syllables/AAD_AAT_5_00.wav,exposure,1010951,427,audio-keyboard-response,syllable,NA,D,T,AA,RIGHT,
17,condition1,AHD_AHT_3_30,GD,,NA,b_group,0.0-428.0,75,NA,NA,17,audio/syllables/AHD_AHT_3_30.wav,3,,680,30,audio/syllables/AHD_AHT_3_30.wav,exposure,1012639,428,audio-keyboard-response,syllable,NA,D,T,AH,RIGHT,
17,condition1,IHD_IHT_3_07,GD,,NA,b_group,0.0-429.0,83,NA,NA,14,audio/syllables/IHD_IHT_3_07.wav,2,,661,7,audio/syllables/IHD_IHT_3_07.wav,exposure,1014311,429,audio-keyboard-response,syllable,NA,D,T,IH,RIGHT,
17,condition1,AAD_AAT_5_00,GD,,NA,b_group,0.0-430.0,75,NA,NA,14,audio/syllables/AAD_AAT_5_00.wav,3,,1048,0,audio/syllables/AAD_AAT_5_00.wav,exposure,1016368,430,audio-keyboard-response,syllable,NA,D,T,AA,RIGHT,
17,condition1,UHD_UHT_5_09,GD,,NA,b_group,0.0-431.0,83,NA,NA,11,audio/syllables/UHD_UHT_5_09.wav,1,,821,9,audio/syllables/UHD_UHT_5_09.wav,exposure,1018191,431,audio-keyboard-response,syllable,NA,D,T,UH,RIGHT,
17,condition1,AAD_AAT_5_09,GD,,NA,b_group,0.0-432.0,83,NA,NA,14,audio/syllables/AAD_AAT_5_09.wav,2,,1160,9,audio/syllables/AAD_AAT_5_09.wav,exposure,1020351,432,audio-keyboard-response,syllable,NA,D,T,AA,RIGHT,
17,condition1,AHD_AHT_3_13,GD,,NA,b_group,0.0-433.0,75,NA,NA,17,audio/syllables/AHD_AHT_3_13.wav,3,,819,13,audio/syllables/AHD_AHT_3_13.wav,exposure,1022183,433,audio-keyboard-response,syllable,NA,D,T,AH,RIGHT,
17,condition1,AAD_AAT_5_09,GD,,NA,b_group,0.0-434.0,83,NA,NA,14,audio/syllables/AAD_AAT_5_09.wav,1,,1269,9,audio/syllables/AAD_AAT_5_09.wav,exposure,1024463,434,audio-keyboard-response,syllable,NA,D,T,AA,RIGHT,
17,condition1,AAD_AAT_5_25,GD,,NA,b_group,0.0-435.0,75,NA,NA,14,audio/syllables/AAD_AAT_5_25.wav,1,,859,25,audio/syllables/AAD_AAT_5_25.wav,exposure,1026327,435,audio-keyboard-response,syllable,NA,D,T,AA,RIGHT,
17,condition1,IHD_IHT_3_00,GD,,NA,b_group,0.0-436.0,83,NA,NA,14,audio/syllables/IHD_IHT_3_00.wav,3,,872,0,audio/syllables/IHD_IHT_3_00.wav,exposure,1028200,436,audio-keyboard-response,syllable,NA,D,T,IH,RIGHT,
17,condition1,AHD_AHT_3_04,GD,,NA,b_group,0.0-437.0,83,NA,NA,17,audio/syllables/AHD_AHT_3_04.wav,1,,1168,4,audio/syllables/AHD_AHT_3_04.wav,exposure,1030375,437,audio-keyboard-response,syllable,NA,D,T,AH,RIGHT,
17,condition1,AHD_AHT_3_30,GD,,NA,b_group,0.0-438.0,75,NA,NA,17,audio/syllables/AHD_AHT_3_30.wav,1,,869,30,audio/syllables/AHD_AHT_3_30.wav,exposure,1032255,438,audio-keyboard-response,syllable,NA,D,T,AH,RIGHT,
17,condition1,AHD_AHT_3_13,GD,,NA,b_group,0.0-439.0,75,NA,NA,17,audio/syllables/AHD_AHT_3_13.wav,2,,1501,13,audio/syllables/AHD_AHT_3_13.wav,exposure,1034760,439,audio-keyboard-response,syllable,NA,D,T,AH,RIGHT,
17,condition1,IHD_IHT_3_25,GD,,NA,b_group,0.0-440.0,75,NA,NA,14,audio/syllables/IHD_IHT_3_25.wav,1,,1160,25,audio/syllables/IHD_IHT_3_25.wav,exposure,1036935,440,audio-keyboard-response,syllable,NA,D,T,IH,RIGHT,
17,condition1,IHD_IHT_3_00,GD,,NA,b_group,0.0-441.0,83,NA,NA,14,audio/syllables/IHD_IHT_3_00.wav,2,,1701,0,audio/syllables/IHD_IHT_3_00.wav,exposure,1039640,441,audio-keyboard-response,syllable,NA,D,T,IH,RIGHT,
17,condition1,AHD_AHT_3_07,GD,,NA,b_group,0.0-442.0,83,NA,NA,17,audio/syllables/AHD_AHT_3_07.wav,2,,1120,7,audio/syllables/AHD_AHT_3_07.wav,exposure,1041775,442,audio-keyboard-response,syllable,NA,D,T,AH,RIGHT,
17,condition1,AHD_AHT_3_11,GD,,NA,b_group,0.0-443.0,83,NA,NA,17,audio/syllables/AHD_AHT_3_11.wav,2,,779,11,audio/syllables/AHD_AHT_3_11.wav,exposure,1043575,443,audio-keyboard-response,syllable,NA,D,T,AH,RIGHT,
17,condition1,IHD_IHT_3_13,GD,,NA,b_group,0.0-444.0,83,NA,NA,14,audio/syllables/IHD_IHT_3_13.wav,3,,1309,13,audio/syllables/IHD_IHT_3_13.wav,exposure,1045887,444,audio-keyboard-response,syllable,NA,D,T,IH,RIGHT,
17,condition1,IHD_IHT_3_07,GD,,NA,b_group,0.0-445.0,83,NA,NA,14,audio/syllables/IHD_IHT_3_07.wav,1,,1771,7,audio/syllables/IHD_IHT_3_07.wav,exposure,1048671,445,audio-keyboard-response,syllable,NA,D,T,IH,RIGHT,
17,condition1,AAD_AAT_5_25,GD,,NA,b_group,0.0-446.0,75,NA,NA,14,audio/syllables/AAD_AAT_5_25.wav,2,,939,25,audio/syllables/AAD_AAT_5_25.wav,exposure,1050608,446,audio-keyboard-response,syllable,NA,D,T,AA,RIGHT,
17,condition1,AAD_AAT_5_30,GD,,NA,b_group,0.0-447.0,75,NA,NA,14,audio/syllables/AAD_AAT_5_30.wav,2,,1731,30,audio/syllables/AAD_AAT_5_30.wav,exposure,1053343,447,audio-keyboard-response,syllable,NA,D,T,AA,RIGHT,
17,condition1,AAD_AAT_5_20,GD,,NA,b_group,0.0-448.0,75,NA,NA,14,audio/syllables/AAD_AAT_5_20.wav,1,,1019,20,audio/syllables/AAD_AAT_5_20.wav,exposure,1055375,448,audio-keyboard-response,syllable,NA,D,T,AA,RIGHT,
17,condition1,AHD_AHT_3_04,GD,,NA,b_group,0.0-449.0,83,NA,NA,17,audio/syllables/AHD_AHT_3_04.wav,3,,1051,4,audio/syllables/AHD_AHT_3_04.wav,exposure,1057431,449,audio-keyboard-response,syllable,NA,D,T,AH,RIGHT,
17,condition1,AAD_AAT_5_07,GD,,NA,b_group,0.0-450.0,75,NA,NA,14,audio/syllables/AAD_AAT_5_07.wav,2,,848,7,audio/syllables/AAD_AAT_5_07.wav,exposure,1059287,450,audio-keyboard-response,syllable,NA,D,T,AA,RIGHT,
17,condition1,AAD_AAT_5_09,GD,,NA,b_group,0.0-451.0,83,NA,NA,14,audio/syllables/AAD_AAT_5_09.wav,3,,1651,9,audio/syllables/AAD_AAT_5_09.wav,exposure,1061951,451,audio-keyboard-response,syllable,NA,D,T,AA,RIGHT,