workerid,proliferate.condition,audio,block_order,button_pressed,correct_response,group,internal_node_id,key_press,match_sel,mismatch_sel,normed_midpoint,path,repetition,responses,rt,step,stimulus,test_part,time_elapsed,trial_index,trial_type,type,visual_target,voiced_sel,voiceless_sel,vowel,yes_side,error
24,condition1,,,0,,,0.0-0.0,,,,,,,,4099.33,,"<div class =""irb""><img src=""imgs/SUSig_2color_Stree_Stacked_Left.png"" alt=""Stanford University Logo"" class=""logo""><p id=""legal""><font size=""3"">We invite you to participate in a research study on language production and comprehension. Your experimenter will ask you to do a linguistic task such as reading sentences or words, naming pictures or describing scenes, making up sentences of your own, or participating in a simple language game. <br><br>There are no risks or benefits of any kind involved in this study. <br><br>You will be paid for your participation at the posted rate.<br><br>If you have read this form and have decided to participate in this experiment, please understand your participation is voluntary and you have the right to withdraw your consent or discontinue participation at anytime without penalty or loss of benefits to which you are otherwise entitled. You have the right to refuse to do particular tasks. Your individual privacy will be maintained in all published and written data resulting from the study. You may print this form for your records.<br><br>CONTACT INFORMATION: If you have any questions, concerns or complaints about this research study, its procedures, risks and benefits, you should contact the Protocol Director Meghan Sumner at (650)-725-9336. If you are not satisfied with how this study is being conducted, or if you have any concerns, complaints, or general questions about the research or your rights as a participant, please contact the Stanford Institutional Review Board (IRB) to speak to someone independent of the research team at (650)-723-2480 or toll free at 1-866-680-2906. You can also write to the Stanford IRB, Stanford University, 3000 El Camino Real, Five Palo Alto Square, 4th Floor, Palo Alto, CA 94306 USA.<br><br>If you agree to participate, please proceed to the study tasks.</font></p></div>",,4120,0,html-button-response,,,,,,,
24,condition1,,,,,,0.0-1.0,32,,,,,,,82903.39,,"<div class=""gen_ins""><p>In this experiment, you will hear recordings and will make simple decisions about them.<br><br>IMPORTANT: Please only accept this task if you are listening through headphones and working in a quiet environment.<br><br>Press the space bar to continue.</p></div>",,87027,1,html-keyboard-response,,,,,,,
24,condition1,,,,,,0.0-2.0,32,,,,,,,21458.195,,"<div class=""spec_ins""><p>This experiment has two parts. In this first part, you will see a printed word, and then hear a spoken word.  Sometimes the printed and spoken words will be the same (see FASHION; hear <em>fashion</em>); other times the printed and spoken words will be different (see FASHION; hear <em>turkey</em>).<br><br>YOUR JOB: Decide whether the printed and spoken words are the SAME or DIFFERENT. To do this, place your fingers on the S and K keys. <br><br>If the words are the SAME press the S key.<br><br>If the words are DIFFERENT, press the K key.<br><br>Please answer as quickly and accurately as possible.<br><br>A response cannot be made until the audio has played entirely. Once a selection is made, the slide will advance after a brief pause. If no response is made after several seconds, the slide will advance automatically.<br><br>Please press the space bar to begin.</p></div>",,108488,2,html-keyboard-response,,,,,,,
24,condition1,,,,,,0.0-3.0,,,,,,,,,,audio/filler/Real_1.wav,,109181,3,audio-keyboard-response,,,,,,,
24,condition1,Real,coda-onset,,yes,control,0.0-4.0,83,SAME,DIFFERENT,NA,audio/filler/Real_1.wav,NA,,2041.535,NA,"<div class=""big-container""><p class=""exposure-prompt"">Real</p><div class=""yes-no""><div class=""option-container""><p>SAME</p><p>Press S</p></div><div class=""option-container""><p>DIFFERENT</p><p>Press K</p></div></div></div>",exposure,111224,4,html-keyboard-response,fill_word,Real,NA,NA,NA,LEFT,
24,condition1,,,,,,0.0-5.0,,,,,,,,,,audio/filler/Harmony_1.wav,,112935,5,audio-keyboard-response,,,,,,,
24,condition1,Harmony,coda-onset,,no,control,0.0-6.0,75,SAME,DIFFERENT,NA,audio/filler/Harmony_1.wav,NA,,1105.76,NA,"<div class=""big-container""><p class=""exposure-prompt"">Habitat</p><div class=""yes-no""><div class=""option-container""><p>SAME</p><p>Press S</p></div><div class=""option-container""><p>DIFFERENT</p><p>Press K</p></div></div></div>",exposure,114042,6,html-keyboard-response,fill_word,Habitat,NA,NA,NA,LEFT,
24,condition1,,,,,,0.0-7.0,,,,,,,,,,audio/filler/Aisle_1.wav,,115730,7,audio-keyboard-response,,,,,,,
24,condition1,Aisle,coda-onset,,no,control,0.0-8.0,75,SAME,DIFFERENT,NA,audio/filler/Aisle_1.wav,NA,,1019.685,NA,"<div class=""big-container""><p class=""exposure-prompt"">Outfit</p><div class=""yes-no""><div class=""option-container""><p>SAME</p><p>Press S</p></div><div class=""option-container""><p>DIFFERENT</p><p>Press K</p></div></div></div>",exposure,116751,8,html-keyboard-response,fill_word,Outfit,NA,NA,NA,LEFT,
24,condition1,,,,,,0.0-9.0,,,,,,,,,,audio/filler/Violin_1.wav,,118635,9,audio-keyboard-response,,,,,,,
24,condition1,Violin,coda-onset,,yes,control,0.0-10.0,83,SAME,DIFFERENT,NA,audio/filler/Violin_1.wav,NA,,841.61,NA,"<div class=""big-container""><p class=""exposure-prompt"">Violin</p><div class=""yes-no""><div class=""option-container""><p>SAME</p><p>Press S</p></div><div class=""option-container""><p>DIFFERENT</p><p>Press K</p></div></div></div>",exposure,119478,10,html-keyboard-response,fill_word,Violin,NA,NA,NA,LEFT,
24,condition1,,,,,,0.0-11.0,,,,,,,,,,audio/unambiguous_p/Barlor_Parlor_4_00.wav,,121202,11,audio-keyboard-response,,,,,,,
24,condition1,Parlor,coda-onset,,no,control,0.0-12.0,75,SAME,DIFFERENT,NA,audio/unambiguous_p/Barlor_Parlor_4_00.wav,NA,,983.71,0,"<div class=""big-container""><p class=""exposure-prompt"">Neutral</p><div class=""yes-no""><div class=""option-container""><p>SAME</p><p>Press S</p></div><div class=""option-container""><p>DIFFERENT</p><p>Press K</p></div></div></div>",exposure,122187,12,html-keyboard-response,crit_unamb,Neutral,NA,NA,NA,LEFT,
24,condition1,,,,,,0.0-13.0,,,,,,,,,,audio/unambiguous_p/Bollen_Pollen_2_00.wav,,123900,13,audio-keyboard-response,,,,,,,
24,condition1,Pollen,coda-onset,,yes,control,0.0-14.0,83,SAME,DIFFERENT,NA,audio/unambiguous_p/Bollen_Pollen_2_00.wav,NA,,713.93,0,"<div class=""big-container""><p class=""exposure-prompt"">Pollen</p><div class=""yes-no""><div class=""option-container""><p>SAME</p><p>Press S</p></div><div class=""option-container""><p>DIFFERENT</p><p>Press K</p></div></div></div>",exposure,124615,14,html-keyboard-response,crit_unamb,Pollen,NA,NA,NA,LEFT,
24,condition1,,,,,,0.0-15.0,,,,,,,,,,audio/unambiguous_p/Bolymer_Polymer_2_00.wav,,126386,15,audio-keyboard-response,,,,,,,
24,condition1,Polymer,coda-onset,,no,control,0.0-16.0,75,SAME,DIFFERENT,NA,audio/unambiguous_p/Bolymer_Polymer_2_00.wav,NA,,803.23,0,"<div class=""big-container""><p class=""exposure-prompt"">Pottery</p><div class=""yes-no""><div class=""option-container""><p>SAME</p><p>Press S</p></div><div class=""option-container""><p>DIFFERENT</p><p>Press K</p></div></div></div>",exposure,127191,16,html-keyboard-response,crit_unamb,Pottery,NA,NA,NA,LEFT,
24,condition1,,,,,,0.0-17.0,,,,,,,,,,audio/unambiguous_p/Bry_Pry_2_00.wav,,128967,17,audio-keyboard-response,,,,,,,
24,condition1,Pry,coda-onset,,yes,control,0.0-18.0,83,SAME,DIFFERENT,NA,audio/unambiguous_p/Bry_Pry_2_00.wav,NA,,613.54,0,"<div class=""big-container""><p class=""exposure-prompt"">Pry</p><div class=""yes-no""><div class=""option-container""><p>SAME</p><p>Press S</p></div><div class=""option-container""><p>DIFFERENT</p><p>Press K</p></div></div></div>",exposure,129582,18,html-keyboard-response,crit_unamb,Pry,NA,NA,NA,LEFT,
24,condition1,,,,,,0.0-19.0,,,,,,,,,,audio/unambiguous_b/Brain_Prain_1_30.wav,,131303,19,audio-keyboard-response,,,,,,,
24,condition1,Brain,coda-onset,,yes,control,0.0-20.0,83,SAME,DIFFERENT,NA,audio/unambiguous_b/Brain_Prain_1_30.wav,NA,,460.875,30,"<div class=""big-container""><p class=""exposure-prompt"">Brain</p><div class=""yes-no""><div class=""option-container""><p>SAME</p><p>Press S</p></div><div class=""option-container""><p>DIFFERENT</p><p>Press K</p></div></div></div>",exposure,131765,20,html-keyboard-response,crit_unamb,Brain,NA,NA,NA,LEFT,
24,condition1,,,,,,0.0-21.0,,,,,,,,,,audio/filler/Hill_1.wav,,133383,21,audio-keyboard-response,,,,,,,
24,condition1,Hill,coda-onset,,yes,control,0.0-22.0,83,SAME,DIFFERENT,NA,audio/filler/Hill_1.wav,NA,,475.15,NA,"<div class=""big-container""><p class=""exposure-prompt"">Hill</p><div class=""yes-no""><div class=""option-container""><p>SAME</p><p>Press S</p></div><div class=""option-container""><p>DIFFERENT</p><p>Press K</p></div></div></div>",exposure,133860,22,html-keyboard-response,fill_word,Hill,NA,NA,NA,LEFT,
24,condition1,,,,,,0.0-23.0,,,,,,,,,,audio/filler/Name_1.wav,,135645,23,audio-keyboard-response,,,,,,,
24,condition1,Name,coda-onset,,no,control,0.0-24.0,83,SAME,DIFFERENT,NA,audio/filler/Name_1.wav,NA,,669.195,NA,"<div class=""big-container""><p class=""exposure-prompt"">Favor</p><div class=""yes-no""><div class=""option-container""><p>SAME</p><p>Press S</p></div><div class=""option-container""><p>DIFFERENT</p><p>Press K</p></div></div></div>",exposure,136315,24,html-keyboard-response,fill_word,Favor,NA,NA,NA,LEFT,
24,condition1,,,,,,0.0-25.0,,,,,,,,,,audio/filler/Jelly_2.wav,,137970,25,audio-keyboard-response,,,,,,,
24,condition1,Jelly,coda-onset,,yes,control,0.0-26.0,83,SAME,DIFFERENT,NA,audio/filler/Jelly_2.wav,NA,,603.9,NA,"<div class=""big-container""><p class=""exposure-prompt"">Jelly</p><div class=""yes-no""><div class=""option-container""><p>SAME</p><p>Press S</p></div><div class=""option-container""><p>DIFFERENT</p><p>Press K</p></div></div></div>",exposure,138575,26,html-keyboard-response,fill_word,Jelly,NA,NA,NA,LEFT,
24,condition1,,,,,,0.0-27.0,,,,,,,,,,audio/filler/Famous_1.wav,,140455,27,audio-keyboard-response,,,,,,,
24,condition1,Famous,coda-onset,,no,control,0.0-28.0,75,SAME,DIFFERENT,NA,audio/filler/Famous_1.wav,NA,,604.82,NA,"<div class=""big-container""><p class=""exposure-prompt"">Loss</p><div class=""yes-no""><div class=""option-container""><p>SAME</p><p>Press S</p></div><div class=""option-container""><p>DIFFERENT</p><p>Press K</p></div></div></div>",exposure,141062,28,html-keyboard-response,fill_word,Loss,NA,NA,NA,LEFT,
24,condition1,,,,,,0.0-29.0,,,,,,,,,,audio/unambiguous_b/Benign_Penign_1_30.wav,,142919,29,audio-keyboard-response,,,,,,,
24,condition1,Benign,coda-onset,,yes,control,0.0-30.0,83,SAME,DIFFERENT,NA,audio/unambiguous_b/Benign_Penign_1_30.wav,NA,,500.725,30,"<div class=""big-container""><p class=""exposure-prompt"">Benign</p><div class=""yes-no""><div class=""option-container""><p>SAME</p><p>Press S</p></div><div class=""option-container""><p>DIFFERENT</p><p>Press K</p></div></div></div>",exposure,143422,30,html-keyboard-response,crit_unamb,Benign,NA,NA,NA,LEFT,
24,condition1,,,,,,0.0-31.0,,,,,,,,,,audio/filler/Arena_1.wav,,145160,31,audio-keyboard-response,,,,,,,
24,condition1,Arena,coda-onset,,yes,control,0.0-32.0,83,SAME,DIFFERENT,NA,audio/filler/Arena_1.wav,NA,,483.795,NA,"<div class=""big-container""><p class=""exposure-prompt"">Arena</p><div class=""yes-no""><div class=""option-container""><p>SAME</p><p>Press S</p></div><div class=""option-container""><p>DIFFERENT</p><p>Press K</p></div></div></div>",exposure,145645,32,html-keyboard-response,fill_word,Arena,NA,NA,NA,LEFT,
24,condition1,,,,,,0.0-33.0,,,,,,,,,,audio/unambiguous_b/Brown_Prown_1_30.wav,,147442,33,audio-keyboard-response,,,,,,,
24,condition1,Brown,coda-onset,,yes,control,0.0-34.0,83,SAME,DIFFERENT,NA,audio/unambiguous_b/Brown_Prown_1_30.wav,NA,,518.385,30,"<div class=""big-container""><p class=""exposure-prompt"">Brown</p><div class=""yes-no""><div class=""option-container""><p>SAME</p><p>Press S</p></div><div class=""option-container""><p>DIFFERENT</p><p>Press K</p></div></div></div>",exposure,147962,34,html-keyboard-response,crit_unamb,Brown,NA,NA,NA,LEFT,
24,condition1,,,,,,0.0-35.0,,,,,,,,,,audio/filler/Area_1.wav,,149671,35,audio-keyboard-response,,,,,,,
24,condition1,Area,coda-onset,,no,control,0.0-36.0,75,SAME,DIFFERENT,NA,audio/filler/Area_1.wav,NA,,494.355,NA,"<div class=""big-container""><p class=""exposure-prompt"">Arrogant</p><div class=""yes-no""><div class=""option-container""><p>SAME</p><p>Press S</p></div><div class=""option-container""><p>DIFFERENT</p><p>Press K</p></div></div></div>",exposure,150167,36,html-keyboard-response,fill_word,Arrogant,NA,NA,NA,LEFT,
24,condition1,,,,,,0.0-37.0,,,,,,,,,,audio/filler/Main_1.wav,,151901,37,audio-keyboard-response,,,,,,,
24,condition1,Main,coda-onset,,no,control,0.0-38.0,75,SAME,DIFFERENT,NA,audio/filler/Main_1.wav,NA,,730.37,NA,"<div class=""big-container""><p class=""exposure-prompt"">Maid</p><div class=""yes-no""><div class=""option-container""><p>SAME</p><p>Press S</p></div><div class=""option-container""><p>DIFFERENT</p><p>Press K</p></div></div></div>",exposure,152633,38,html-keyboard-response,fill_word,Maid,NA,NA,NA,LEFT,
24,condition1,,,,,,0.0-39.0,,,,,,,,,,audio/filler/Venue_1.wav,,154557,39,audio-keyboard-response,,,,,,,
24,condition1,Venue,coda-onset,,no,control,0.0-40.0,75,SAME,DIFFERENT,NA,audio/filler/Venue_1.wav,NA,,694.16,NA,"<div class=""big-container""><p class=""exposure-prompt"">Vessel</p><div class=""yes-no""><div class=""option-container""><p>SAME</p><p>Press S</p></div><div class=""option-container""><p>DIFFERENT</p><p>Press K</p></div></div></div>",exposure,155253,40,html-keyboard-response,fill_word,Vessel,NA,NA,NA,LEFT,
24,condition1,,,,,,0.0-41.0,,,,,,,,,,audio/unambiguous_b/Barn_Parn_1_30.wav,,156925,41,audio-keyboard-response,,,,,,,
24,condition1,Barn,coda-onset,,no,control,0.0-42.0,75,SAME,DIFFERENT,NA,audio/unambiguous_b/Barn_Parn_1_30.wav,NA,,649.845,30,"<div class=""big-container""><p class=""exposure-prompt"">Bark</p><div class=""yes-no""><div class=""option-container""><p>SAME</p><p>Press S</p></div><div class=""option-container""><p>DIFFERENT</p><p>Press K</p></div></div></div>",exposure,157576,42,html-keyboard-response,crit_unamb,Bark,NA,NA,NA,LEFT,
24,condition1,,,,,,0.0-43.0,,,,,,,,,,audio/unambiguous_p/Brior_Prior_2_00.wav,,159272,43,audio-keyboard-response,,,,,,,
24,condition1,Prior,coda-onset,,yes,control,0.0-44.0,83,SAME,DIFFERENT,NA,audio/unambiguous_p/Brior_Prior_2_00.wav,NA,,614.08,0,"<div class=""big-container""><p class=""exposure-prompt"">Prior</p><div class=""yes-no""><div class=""option-container""><p>SAME</p><p>Press S</p></div><div class=""option-container""><p>DIFFERENT</p><p>Press K</p></div></div></div>",exposure,159888,44,html-keyboard-response,crit_unamb,Prior,NA,NA,NA,LEFT,
24,condition1,,,,,,0.0-45.0,,,,,,,,,,audio/filler/Volume_1.wav,,161693,45,audio-keyboard-response,,,,,,,
24,condition1,Volume,coda-onset,,no,control,0.0-46.0,75,SAME,DIFFERENT,NA,audio/filler/Volume_1.wav,NA,,558.265,NA,"<div class=""big-container""><p class=""exposure-prompt"">Physical</p><div class=""yes-no""><div class=""option-container""><p>SAME</p><p>Press S</p></div><div class=""option-container""><p>DIFFERENT</p><p>Press K</p></div></div></div>",exposure,162253,46,html-keyboard-response,fill_word,Physical,NA,NA,NA,LEFT,
24,condition1,,,,,,0.0-47.0,,,,,,,,,,audio/unambiguous_b/Balloon_Palloon_1_30.wav,,163976,47,audio-keyboard-response,,,,,,,
24,condition1,Balloon,coda-onset,,no,control,0.0-48.0,75,SAME,DIFFERENT,NA,audio/unambiguous_b/Balloon_Palloon_1_30.wav,NA,,976.725,30,"<div class=""big-container""><p class=""exposure-prompt"">Enlarge</p><div class=""yes-no""><div class=""option-container""><p>SAME</p><p>Press S</p></div><div class=""option-container""><p>DIFFERENT</p><p>Press K</p></div></div></div>",exposure,164954,48,html-keyboard-response,crit_unamb,Enlarge,NA,NA,NA,LEFT,
24,condition1,,,,,,0.0-49.0,,,,,,,,,,audio/unambiguous_p/Bioneer_Pioneer_4_00.wav,,166792,49,audio-keyboard-response,,,,,,,
24,condition1,Pioneer,coda-onset,,no,control,0.0-50.0,75,SAME,DIFFERENT,NA,audio/unambiguous_p/Bioneer_Pioneer_4_00.wav,NA,,506.445,0,"<div class=""big-container""><p class=""exposure-prompt"">Pillow</p><div class=""yes-no""><div class=""option-container""><p>SAME</p><p>Press S</p></div><div class=""option-container""><p>DIFFERENT</p><p>Press K</p></div></div></div>",exposure,167300,50,html-keyboard-response,crit_unamb,Pillow,NA,NA,NA,LEFT,
24,condition1,,,,,,0.0-51.0,,,,,,,,,,audio/unambiguous_p/Breliminary_Preliminary_2_00.wav,,169331,51,audio-keyboard-response,,,,,,,
24,condition1,Preliminary,coda-onset,,no,control,0.0-52.0,75,SAME,DIFFERENT,NA,audio/unambiguous_p/Breliminary_Preliminary_2_00.wav,NA,,547.38,0,"<div class=""big-container""><p class=""exposure-prompt"">Temple</p><div class=""yes-no""><div class=""option-container""><p>SAME</p><p>Press S</p></div><div class=""option-container""><p>DIFFERENT</p><p>Press K</p></div></div></div>",exposure,169880,52,html-keyboard-response,crit_unamb,Temple,NA,NA,NA,LEFT,
24,condition1,,,,,,0.0-53.0,,,,,,,,,,audio/filler/Aware_1.wav,,171667,53,audio-keyboard-response,,,,,,,
24,condition1,Aware,coda-onset,,no,control,0.0-54.0,75,SAME,DIFFERENT,NA,audio/filler/Aware_1.wav,NA,,456.955,NA,"<div class=""big-container""><p class=""exposure-prompt"">Arrest</p><div class=""yes-no""><div class=""option-container""><p>SAME</p><p>Press S</p></div><div class=""option-container""><p>DIFFERENT</p><p>Press K</p></div></div></div>",exposure,172125,54,html-keyboard-response,fill_word,Arrest,NA,NA,NA,LEFT,
24,condition1,,,,,,0.0-55.0,,,,,,,,,,audio/filler/Shell_1.wav,,173907,55,audio-keyboard-response,,,,,,,
24,condition1,Shell,coda-onset,,no,control,0.0-56.0,75,SAME,DIFFERENT,NA,audio/filler/Shell_1.wav,NA,,497.56,NA,"<div class=""big-container""><p class=""exposure-prompt"">Major</p><div class=""yes-no""><div class=""option-container""><p>SAME</p><p>Press S</p></div><div class=""option-container""><p>DIFFERENT</p><p>Press K</p></div></div></div>",exposure,174406,56,html-keyboard-response,fill_word,Major,NA,NA,NA,LEFT,
24,condition1,,,,,,0.0-57.0,,,,,,,,,,audio/unambiguous_p/Barallel_Parallel_4_00.wav,,176211,57,audio-keyboard-response,,,,,,,
24,condition1,Parallel,coda-onset,,yes,control,0.0-58.0,83,SAME,DIFFERENT,NA,audio/unambiguous_p/Barallel_Parallel_4_00.wav,NA,,1054.57,0,"<div class=""big-container""><p class=""exposure-prompt"">Parallel</p><div class=""yes-no""><div class=""option-container""><p>SAME</p><p>Press S</p></div><div class=""option-container""><p>DIFFERENT</p><p>Press K</p></div></div></div>",exposure,177267,58,html-keyboard-response,crit_unamb,Parallel,NA,NA,NA,LEFT,
24,condition1,,,,,,0.0-59.0,,,,,,,,,,audio/filler/Royal_1.wav,,179005,59,audio-keyboard-response,,,,,,,
24,condition1,Royal,coda-onset,,no,control,0.0-60.0,75,SAME,DIFFERENT,NA,audio/filler/Royal_1.wav,NA,,773.28,NA,"<div class=""big-container""><p class=""exposure-prompt"">Refund</p><div class=""yes-no""><div class=""option-container""><p>SAME</p><p>Press S</p></div><div class=""option-container""><p>DIFFERENT</p><p>Press K</p></div></div></div>",exposure,179780,60,html-keyboard-response,fill_word,Refund,NA,NA,NA,LEFT,
24,condition1,,,,,,0.0-61.0,,,,,,,,,,audio/unambiguous_b/Burrow_Purrow_1_30.wav,,181437,61,audio-keyboard-response,,,,,,,
24,condition1,Burrow,coda-onset,,yes,control,0.0-62.0,83,SAME,DIFFERENT,NA,audio/unambiguous_b/Burrow_Purrow_1_30.wav,NA,,605.255,30,"<div class=""big-container""><p class=""exposure-prompt"">Burrow</p><div class=""yes-no""><div class=""option-container""><p>SAME</p><p>Press S</p></div><div class=""option-container""><p>DIFFERENT</p><p>Press K</p></div></div></div>",exposure,182044,62,html-keyboard-response,crit_unamb,Burrow,NA,NA,NA,LEFT,
24,condition1,,,,,,0.0-63.0,,,,,,,,,,audio/filler/Hallway_1.wav,,183827,63,audio-keyboard-response,,,,,,,
24,condition1,Hallway,coda-onset,,no,control,0.0-64.0,75,SAME,DIFFERENT,NA,audio/filler/Hallway_1.wav,NA,,529.5,NA,"<div class=""big-container""><p class=""exposure-prompt"">Harvest</p><div class=""yes-no""><div class=""option-container""><p>SAME</p><p>Press S</p></div><div class=""option-container""><p>DIFFERENT</p><p>Press K</p></div></div></div>",exposure,184358,64,html-keyboard-response,fill_word,Harvest,NA,NA,NA,LEFT,
24,condition1,,,,,,0.0-65.0,,,,,,,,,,audio/filler/Narrow_1.wav,,186046,65,audio-keyboard-response,,,,,,,
24,condition1,Narrow,coda-onset,,no,control,0.0-66.0,75,SAME,DIFFERENT,NA,audio/filler/Narrow_1.wav,NA,,716.77,NA,"<div class=""big-container""><p class=""exposure-prompt"">Ankle</p><div class=""yes-no""><div class=""option-container""><p>SAME</p><p>Press S</p></div><div class=""option-container""><p>DIFFERENT</p><p>Press K</p></div></div></div>",exposure,186764,66,html-keyboard-response,fill_word,Ankle,NA,NA,NA,LEFT,
24,condition1,,,,,,0.0-67.0,,,,,,,,,,audio/unambiguous_b/Billion_Pillion_1_30.wav,,188455,67,audio-keyboard-response,,,,,,,
24,condition1,Billion,coda-onset,,no,control,0.0-68.0,75,SAME,DIFFERENT,NA,audio/unambiguous_b/Billion_Pillion_1_30.wav,NA,,601.625,30,"<div class=""big-container""><p class=""exposure-prompt"">Bitter</p><div class=""yes-no""><div class=""option-container""><p>SAME</p><p>Press S</p></div><div class=""option-container""><p>DIFFERENT</p><p>Press K</p></div></div></div>",exposure,189058,68,html-keyboard-response,crit_unamb,Bitter,NA,NA,NA,LEFT,
24,condition1,,,,,,0.0-69.0,,,,,,,,,,audio/filler/Sewer_1.wav,,190750,69,audio-keyboard-response,,,,,,,
24,condition1,Sewer,coda-onset,,no,control,0.0-70.0,75,SAME,DIFFERENT,NA,audio/filler/Sewer_1.wav,NA,,565.285,NA,"<div class=""big-container""><p class=""exposure-prompt"">Layout</p><div class=""yes-no""><div class=""option-container""><p>SAME</p><p>Press S</p></div><div class=""option-container""><p>DIFFERENT</p><p>Press K</p></div></div></div>",exposure,191317,70,html-keyboard-response,fill_word,Layout,NA,NA,NA,LEFT,
24,condition1,,,,,,0.0-71.0,,,,,,,,,,audio/unambiguous_p/Blanner_Planner_2_00.wav,,193033,71,audio-keyboard-response,,,,,,,
24,condition1,Planner,coda-onset,,yes,control,0.0-72.0,83,SAME,DIFFERENT,NA,audio/unambiguous_p/Blanner_Planner_2_00.wav,NA,,548.885,0,"<div class=""big-container""><p class=""exposure-prompt"">Planner</p><div class=""yes-no""><div class=""option-container""><p>SAME</p><p>Press S</p></div><div class=""option-container""><p>DIFFERENT</p><p>Press K</p></div></div></div>",exposure,193583,72,html-keyboard-response,crit_unamb,Planner,NA,NA,NA,LEFT,
24,condition1,,,,,,0.0-73.0,,,,,,,,,,audio/filler/Rumor_1.wav,,195368,73,audio-keyboard-response,,,,,,,
24,condition1,Rumor,coda-onset,,yes,control,0.0-74.0,83,SAME,DIFFERENT,NA,audio/filler/Rumor_1.wav,NA,,599.855,NA,"<div class=""big-container""><p class=""exposure-prompt"">Rumor</p><div class=""yes-no""><div class=""option-container""><p>SAME</p><p>Press S</p></div><div class=""option-container""><p>DIFFERENT</p><p>Press K</p></div></div></div>",exposure,195970,74,html-keyboard-response,fill_word,Rumor,NA,NA,NA,LEFT,
24,condition1,,,,,,0.0-75.0,,,,,,,,,,audio/filler/Enemy_1.wav,,197608,75,audio-keyboard-response,,,,,,,
24,condition1,Enemy,coda-onset,,no,control,0.0-76.0,75,SAME,DIFFERENT,NA,audio/filler/Enemy_1.wav,NA,,626.09,NA,"<div class=""big-container""><p class=""exposure-prompt"">Energy</p><div class=""yes-no""><div class=""option-container""><p>SAME</p><p>Press S</p></div><div class=""option-container""><p>DIFFERENT</p><p>Press K</p></div></div></div>",exposure,198236,76,html-keyboard-response,fill_word,Energy,NA,NA,NA,LEFT,
24,condition1,,,,,,0.0-77.0,,,,,,,,,,audio/filler/Ruin_1.wav,,199966,77,audio-keyboard-response,,,,,,,
24,condition1,Ruin,coda-onset,,yes,control,0.0-78.0,83,SAME,DIFFERENT,NA,audio/filler/Ruin_1.wav,NA,,665.36,NA,"<div class=""big-container""><p class=""exposure-prompt"">Ruin</p><div class=""yes-no""><div class=""option-container""><p>SAME</p><p>Press S</p></div><div class=""option-container""><p>DIFFERENT</p><p>Press K</p></div></div></div>",exposure,200633,78,html-keyboard-response,fill_word,Ruin,NA,NA,NA,LEFT,
24,condition1,,,,,,0.0-79.0,,,,,,,,,,audio/filler/Normal_2.wav,,202366,79,audio-keyboard-response,,,,,,,
24,condition1,Normal,coda-onset,,no,control,0.0-80.0,75,SAME,DIFFERENT,NA,audio/filler/Normal_2.wav,NA,,464.53,NA,"<div class=""big-container""><p class=""exposure-prompt"">Nervous</p><div class=""yes-no""><div class=""option-container""><p>SAME</p><p>Press S</p></div><div class=""option-container""><p>DIFFERENT</p><p>Press K</p></div></div></div>",exposure,202832,80,html-keyboard-response,fill_word,Nervous,NA,NA,NA,LEFT,
24,condition1,,,,,,0.0-81.0,,,,,,,,,,audio/filler/Similar_1.wav,,204659,81,audio-keyboard-response,,,,,,,
24,condition1,Similar,coda-onset,,no,control,0.0-82.0,75,SAME,DIFFERENT,NA,audio/filler/Similar_1.wav,NA,,1027.285,NA,"<div class=""big-container""><p class=""exposure-prompt"">Seminar</p><div class=""yes-no""><div class=""option-container""><p>SAME</p><p>Press S</p></div><div class=""option-container""><p>DIFFERENT</p><p>Press K</p></div></div></div>",exposure,205688,82,html-keyboard-response,fill_word,Seminar,NA,NA,NA,LEFT,
24,condition1,,,,,,0.0-83.0,,,,,,,,,,audio/filler/Jewel_1.wav,,207326,83,audio-keyboard-response,,,,,,,
24,condition1,Jewel,coda-onset,,no,control,0.0-84.0,75,SAME,DIFFERENT,NA,audio/filler/Jewel_1.wav,NA,,568.505,NA,"<div class=""big-container""><p class=""exposure-prompt"">Tribute</p><div class=""yes-no""><div class=""option-container""><p>SAME</p><p>Press S</p></div><div class=""option-container""><p>DIFFERENT</p><p>Press K</p></div></div></div>",exposure,207896,84,html-keyboard-response,fill_word,Tribute,NA,NA,NA,LEFT,
24,condition1,,,,,,0.0-85.0,,,,,,,,,,audio/filler/Layer_1.wav,,209555,85,audio-keyboard-response,,,,,,,
24,condition1,Layer,coda-onset,,yes,control,0.0-86.0,83,SAME,DIFFERENT,NA,audio/filler/Layer_1.wav,NA,,560.17,NA,"<div class=""big-container""><p class=""exposure-prompt"">Layer</p><div class=""yes-no""><div class=""option-container""><p>SAME</p><p>Press S</p></div><div class=""option-container""><p>DIFFERENT</p><p>Press K</p></div></div></div>",exposure,210117,86,html-keyboard-response,fill_word,Layer,NA,NA,NA,LEFT,
24,condition1,,,,,,0.0-87.0,,,,,,,,,,audio/filler/Swear_1.wav,,211966,87,audio-keyboard-response,,,,,,,
24,condition1,Swear,coda-onset,,no,control,0.0-88.0,75,SAME,DIFFERENT,NA,audio/filler/Swear_1.wav,NA,,573.27,NA,"<div class=""big-container""><p class=""exposure-prompt"">Remark</p><div class=""yes-no""><div class=""option-container""><p>SAME</p><p>Press S</p></div><div class=""option-container""><p>DIFFERENT</p><p>Press K</p></div></div></div>",exposure,212541,88,html-keyboard-response,fill_word,Remark,NA,NA,NA,LEFT,
24,condition1,,,,,,0.0-89.0,,,,,,,,,,audio/filler/Lawyer_1.wav,,214270,89,audio-keyboard-response,,,,,,,
24,condition1,Lawyer,coda-onset,,no,control,0.0-90.0,75,SAME,DIFFERENT,NA,audio/filler/Lawyer_1.wav,NA,,663.795,NA,"<div class=""big-container""><p class=""exposure-prompt"">Advice</p><div class=""yes-no""><div class=""option-container""><p>SAME</p><p>Press S</p></div><div class=""option-container""><p>DIFFERENT</p><p>Press K</p></div></div></div>",exposure,214935,90,html-keyboard-response,fill_word,Advice,NA,NA,NA,LEFT,
24,condition1,,,,,,0.0-91.0,,,,,,,,,,audio/unambiguous_p/Beninsula_Peninsula_2_00.wav,,216819,91,audio-keyboard-response,,,,,,,
24,condition1,Peninsula,coda-onset,,yes,control,0.0-92.0,83,SAME,DIFFERENT,NA,audio/unambiguous_p/Beninsula_Peninsula_2_00.wav,NA,,556.145,0,"<div class=""big-container""><p class=""exposure-prompt"">Peninsula</p><div class=""yes-no""><div class=""option-container""><p>SAME</p><p>Press S</p></div><div class=""option-container""><p>DIFFERENT</p><p>Press K</p></div></div></div>",exposure,217377,92,html-keyboard-response,crit_unamb,Peninsula,NA,NA,NA,LEFT,
24,condition1,,,,,,0.0-93.0,,,,,,,,,,audio/filler/Nun_1.wav,,218995,93,audio-keyboard-response,,,,,,,
24,condition1,Nun,coda-onset,,yes,control,0.0-94.0,83,SAME,DIFFERENT,NA,audio/filler/Nun_1.wav,NA,,1071.53,NA,"<div class=""big-container""><p class=""exposure-prompt"">Nun</p><div class=""yes-no""><div class=""option-container""><p>SAME</p><p>Press S</p></div><div class=""option-container""><p>DIFFERENT</p><p>Press K</p></div></div></div>",exposure,220068,94,html-keyboard-response,fill_word,Nun,NA,NA,NA,LEFT,
24,condition1,,,,,,0.0-95.0,,,,,,,,,,audio/filler/Low_1.wav,,221726,95,audio-keyboard-response,,,,,,,
24,condition1,Low,coda-onset,,yes,control,0.0-96.0,83,SAME,DIFFERENT,NA,audio/filler/Low_1.wav,NA,,1294.63,NA,"<div class=""big-container""><p class=""exposure-prompt"">Low</p><div class=""yes-no""><div class=""option-container""><p>SAME</p><p>Press S</p></div><div class=""option-container""><p>DIFFERENT</p><p>Press K</p></div></div></div>",exposure,223022,96,html-keyboard-response,fill_word,Low,NA,NA,NA,LEFT,
24,condition1,,,,,,0.0-97.0,,,,,,,,,,audio/filler/Memory_1.wav,,224691,97,audio-keyboard-response,,,,,,,
24,condition1,Memory,coda-onset,,yes,control,0.0-98.0,83,SAME,DIFFERENT,NA,audio/filler/Memory_1.wav,NA,,527.09,NA,"<div class=""big-container""><p class=""exposure-prompt"">Memory</p><div class=""yes-no""><div class=""option-container""><p>SAME</p><p>Press S</p></div><div class=""option-container""><p>DIFFERENT</p><p>Press K</p></div></div></div>",exposure,225220,98,html-keyboard-response,fill_word,Memory,NA,NA,NA,LEFT,
24,condition1,,,,,,0.0-99.0,,,,,,,,,,audio/filler/Seal_1.wav,,226953,99,audio-keyboard-response,,,,,,,
24,condition1,Seal,coda-onset,,no,control,0.0-100.0,75,SAME,DIFFERENT,NA,audio/filler/Seal_1.wav,NA,,786.12,NA,"<div class=""big-container""><p class=""exposure-prompt"">Chorus</p><div class=""yes-no""><div class=""option-container""><p>SAME</p><p>Press S</p></div><div class=""option-container""><p>DIFFERENT</p><p>Press K</p></div></div></div>",exposure,227740,100,html-keyboard-response,fill_word,Chorus,NA,NA,NA,LEFT,
24,condition1,,,,,,0.0-101.0,,,,,,,,,,audio/filler/Failure_1.wav,,229427,101,audio-keyboard-response,,,,,,,
24,condition1,Failure,coda-onset,,yes,control,0.0-102.0,83,SAME,DIFFERENT,NA,audio/filler/Failure_1.wav,NA,,617.28,NA,"<div class=""big-container""><p class=""exposure-prompt"">Failure</p><div class=""yes-no""><div class=""option-container""><p>SAME</p><p>Press S</p></div><div class=""option-container""><p>DIFFERENT</p><p>Press K</p></div></div></div>",exposure,230046,102,html-keyboard-response,fill_word,Failure,NA,NA,NA,LEFT,
24,condition1,,,,,,0.0-103.0,,,,,,,,,,audio/filler/Funnel_1.wav,,231731,103,audio-keyboard-response,,,,,,,
24,condition1,Funnel,coda-onset,,no,control,0.0-104.0,75,SAME,DIFFERENT,NA,audio/filler/Funnel_1.wav,NA,,564.955,NA,"<div class=""big-container""><p class=""exposure-prompt"">Deny</p><div class=""yes-no""><div class=""option-container""><p>SAME</p><p>Press S</p></div><div class=""option-container""><p>DIFFERENT</p><p>Press K</p></div></div></div>",exposure,232298,104,html-keyboard-response,fill_word,Deny,NA,NA,NA,LEFT,
24,condition1,,,,,,0.0-105.0,,,,,,,,,,audio/unambiguous_b/Brewery_Prewery_3_30.wav,,234462,105,audio-keyboard-response,,,,,,,
24,condition1,Brewery,coda-onset,,yes,control,0.0-106.0,83,SAME,DIFFERENT,NA,audio/unambiguous_b/Brewery_Prewery_3_30.wav,NA,,610.285,30,"<div class=""big-container""><p class=""exposure-prompt"">Brewery</p><div class=""yes-no""><div class=""option-container""><p>SAME</p><p>Press S</p></div><div class=""option-container""><p>DIFFERENT</p><p>Press K</p></div></div></div>",exposure,235074,106,html-keyboard-response,crit_unamb,Brewery,NA,NA,NA,LEFT,
24,condition1,,,,,,0.0-107.0,,,,,,,,,,audio/unambiguous_b/Biannual_Piannual_1_30.wav,,237214,107,audio-keyboard-response,,,,,,,
24,condition1,Biannual,coda-onset,,yes,control,0.0-108.0,83,SAME,DIFFERENT,NA,audio/unambiguous_b/Biannual_Piannual_1_30.wav,NA,,1411.89,30,"<div class=""big-container""><p class=""exposure-prompt"">Biannual</p><div class=""yes-no""><div class=""option-container""><p>SAME</p><p>Press S</p></div><div class=""option-container""><p>DIFFERENT</p><p>Press K</p></div></div></div>",exposure,238628,108,html-keyboard-response,crit_unamb,Biannual,NA,NA,NA,LEFT,
24,condition1,,,,,,0.0-109.0,,,,,,,,,,audio/unambiguous_b/Belly_Pelly_3_30.wav,,240201,109,audio-keyboard-response,,,,,,,
24,condition1,Belly,coda-onset,,no,control,0.0-110.0,75,SAME,DIFFERENT,NA,audio/unambiguous_b/Belly_Pelly_3_30.wav,NA,,711.81,30,"<div class=""big-container""><p class=""exposure-prompt"">Berry</p><div class=""yes-no""><div class=""option-container""><p>SAME</p><p>Press S</p></div><div class=""option-container""><p>DIFFERENT</p><p>Press K</p></div></div></div>",exposure,240914,110,html-keyboard-response,crit_unamb,Berry,NA,NA,NA,LEFT,
24,condition1,,,,,,0.0-111.0,,,,,,,,,,audio/filler/Runner_1.wav,,242622,111,audio-keyboard-response,,,,,,,
24,condition1,Runner,coda-onset,,no,control,0.0-112.0,75,SAME,DIFFERENT,NA,audio/filler/Runner_1.wav,NA,,1341.79,NA,"<div class=""big-container""><p class=""exposure-prompt"">River</p><div class=""yes-no""><div class=""option-container""><p>SAME</p><p>Press S</p></div><div class=""option-container""><p>DIFFERENT</p><p>Press K</p></div></div></div>",exposure,243965,112,html-keyboard-response,fill_word,River,NA,NA,NA,LEFT,
24,condition1,,,,,,0.0-113.0,,,,,,,,,,audio/unambiguous_b/Boil_Poil_1_30.wav,,245651,113,audio-keyboard-response,,,,,,,
24,condition1,Boil,coda-onset,,yes,control,0.0-114.0,83,SAME,DIFFERENT,NA,audio/unambiguous_b/Boil_Poil_1_30.wav,NA,,560.45,30,"<div class=""big-container""><p class=""exposure-prompt"">Boil</p><div class=""yes-no""><div class=""option-container""><p>SAME</p><p>Press S</p></div><div class=""option-container""><p>DIFFERENT</p><p>Press K</p></div></div></div>",exposure,246213,114,html-keyboard-response,crit_unamb,Boil,NA,NA,NA,LEFT,
24,condition1,,,,,,0.0-115.0,,,,,,,,,,audio/unambiguous_b/Billionaire_Pillionaire_1_30.wav,,248211,115,audio-keyboard-response,,,,,,,
24,condition1,Billionaire,coda-onset,,yes,control,0.0-116.0,83,SAME,DIFFERENT,NA,audio/unambiguous_b/Billionaire_Pillionaire_1_30.wav,NA,,694.32,30,"<div class=""big-container""><p class=""exposure-prompt"">Billionaire</p><div class=""yes-no""><div class=""option-container""><p>SAME</p><p>Press S</p></div><div class=""option-container""><p>DIFFERENT</p><p>Press K</p></div></div></div>",exposure,248907,116,html-keyboard-response,crit_unamb,Billionaire,NA,NA,NA,LEFT,
24,condition1,,,,,,0.0-117.0,,,,,,,,,,audio/filler/Arrow_1.wav,,250547,117,audio-keyboard-response,,,,,,,
24,condition1,Arrow,coda-onset,,no,control,0.0-118.0,75,SAME,DIFFERENT,NA,audio/filler/Arrow_1.wav,NA,,768.395,NA,"<div class=""big-container""><p class=""exposure-prompt"">Ambition</p><div class=""yes-no""><div class=""option-container""><p>SAME</p><p>Press S</p></div><div class=""option-container""><p>DIFFERENT</p><p>Press K</p></div></div></div>",exposure,251318,118,html-keyboard-response,fill_word,Ambition,NA,NA,NA,LEFT,
24,condition1,,,,,,0.0-119.0,,,,,,,,,,audio/filler/Ring_1.wav,,252979,119,audio-keyboard-response,,,,,,,
24,condition1,Ring,coda-onset,,no,control,0.0-120.0,75,SAME,DIFFERENT,NA,audio/filler/Ring_1.wav,NA,,826.435,NA,"<div class=""big-container""><p class=""exposure-prompt"">Retreat</p><div class=""yes-no""><div class=""option-container""><p>SAME</p><p>Press S</p></div><div class=""option-container""><p>DIFFERENT</p><p>Press K</p></div></div></div>",exposure,253807,120,html-keyboard-response,fill_word,Retreat,NA,NA,NA,LEFT,
24,condition1,,,,,,0.0-121.0,,,,,,,,,,audio/filler/Learning_1.wav,,255539,121,audio-keyboard-response,,,,,,,
24,condition1,Learning,coda-onset,,yes,control,0.0-122.0,83,SAME,DIFFERENT,NA,audio/filler/Learning_1.wav,NA,,528.835,NA,"<div class=""big-container""><p class=""exposure-prompt"">Learning</p><div class=""yes-no""><div class=""option-container""><p>SAME</p><p>Press S</p></div><div class=""option-container""><p>DIFFERENT</p><p>Press K</p></div></div></div>",exposure,256070,122,html-keyboard-response,fill_word,Learning,NA,NA,NA,LEFT,
24,condition1,,,,,,0.0-123.0,,,,,,,,,,audio/filler/Ally_1.wav,,257822,123,audio-keyboard-response,,,,,,,
24,condition1,Ally,coda-onset,,no,control,0.0-124.0,75,SAME,DIFFERENT,NA,audio/filler/Ally_1.wav,NA,,667.105,NA,"<div class=""big-container""><p class=""exposure-prompt"">Agile</p><div class=""yes-no""><div class=""option-container""><p>SAME</p><p>Press S</p></div><div class=""option-container""><p>DIFFERENT</p><p>Press K</p></div></div></div>",exposure,258491,124,html-keyboard-response,fill_word,Agile,NA,NA,NA,LEFT,
24,condition1,,,,,,0.0-125.0,,,,,,,,,,audio/unambiguous_b/Boom_Poom_1_30.wav,,260084,125,audio-keyboard-response,,,,,,,
24,condition1,Boom,coda-onset,,yes,control,0.0-126.0,83,SAME,DIFFERENT,NA,audio/unambiguous_b/Boom_Poom_1_30.wav,NA,,656.92,30,"<div class=""big-container""><p class=""exposure-prompt"">Boom</p><div class=""yes-no""><div class=""option-container""><p>SAME</p><p>Press S</p></div><div class=""option-container""><p>DIFFERENT</p><p>Press K</p></div></div></div>",exposure,260742,126,html-keyboard-response,crit_unamb,Boom,NA,NA,NA,LEFT,
24,condition1,,,,,,0.0-127.0,,,,,,,,,,audio/filler/Vary_1.wav,,262590,127,audio-keyboard-response,,,,,,,
24,condition1,Vary,coda-onset,,yes,control,0.0-128.0,83,SAME,DIFFERENT,NA,audio/filler/Vary_1.wav,NA,,895.14,NA,"<div class=""big-container""><p class=""exposure-prompt"">Vary</p><div class=""yes-no""><div class=""option-container""><p>SAME</p><p>Press S</p></div><div class=""option-container""><p>DIFFERENT</p><p>Press K</p></div></div></div>",exposure,263487,128,html-keyboard-response,fill_word,Vary,NA,NA,NA,LEFT,
24,condition1,,,,,,0.0-129.0,,,,,,,,,,audio/filler/Throne_1.wav,,265225,129,audio-keyboard-response,,,,,,,
24,condition1,Throne,coda-onset,,yes,control,0.0-130.0,83,SAME,DIFFERENT,NA,audio/filler/Throne_1.wav,NA,,485.79,NA,"<div class=""big-container""><p class=""exposure-prompt"">Throne</p><div class=""yes-no""><div class=""option-container""><p>SAME</p><p>Press S</p></div><div class=""option-container""><p>DIFFERENT</p><p>Press K</p></div></div></div>",exposure,265712,130,html-keyboard-response,fill_word,Throne,NA,NA,NA,LEFT,
24,condition1,,,,,,0.0-131.0,,,,,,,,,,audio/unambiguous_b/Banana_Panana_1_30.wav,,267454,131,audio-keyboard-response,,,,,,,
24,condition1,Banana,coda-onset,,yes,control,0.0-132.0,83,SAME,DIFFERENT,NA,audio/unambiguous_b/Banana_Panana_1_30.wav,NA,,505.91,30,"<div class=""big-container""><p class=""exposure-prompt"">Banana</p><div class=""yes-no""><div class=""option-container""><p>SAME</p><p>Press S</p></div><div class=""option-container""><p>DIFFERENT</p><p>Press K</p></div></div></div>",exposure,267962,132,html-keyboard-response,crit_unamb,Banana,NA,NA,NA,LEFT,
24,condition1,,,,,,0.0-133.0,,,,,,,,,,audio/unambiguous_p/Blea_Plea_2_00.wav,,269630,133,audio-keyboard-response,,,,,,,
24,condition1,Plea,coda-onset,,no,control,0.0-134.0,75,SAME,DIFFERENT,NA,audio/unambiguous_p/Blea_Plea_2_00.wav,NA,,720.025,0,"<div class=""big-container""><p class=""exposure-prompt"">Pick</p><div class=""yes-no""><div class=""option-container""><p>SAME</p><p>Press S</p></div><div class=""option-container""><p>DIFFERENT</p><p>Press K</p></div></div></div>",exposure,270351,134,html-keyboard-response,crit_unamb,Pick,NA,NA,NA,LEFT,
24,condition1,,,,,,0.0-135.0,,,,,,,,,,audio/filler/Assume_1.wav,,272083,135,audio-keyboard-response,,,,,,,
24,condition1,Assume,coda-onset,,yes,control,0.0-136.0,83,SAME,DIFFERENT,NA,audio/filler/Assume_1.wav,NA,,831.24,NA,"<div class=""big-container""><p class=""exposure-prompt"">Assume</p><div class=""yes-no""><div class=""option-container""><p>SAME</p><p>Press S</p></div><div class=""option-container""><p>DIFFERENT</p><p>Press K</p></div></div></div>",exposure,272916,136,html-keyboard-response,fill_word,Assume,NA,NA,NA,LEFT,
24,condition1,,,,,,0.0-137.0,,,,,,,,,,audio/filler/Money_1.wav,,274580,137,audio-keyboard-response,,,,,,,
24,condition1,Money,coda-onset,,yes,control,0.0-138.0,83,SAME,DIFFERENT,NA,audio/filler/Money_1.wav,NA,,652.945,NA,"<div class=""big-container""><p class=""exposure-prompt"">Money</p><div class=""yes-no""><div class=""option-container""><p>SAME</p><p>Press S</p></div><div class=""option-container""><p>DIFFERENT</p><p>Press K</p></div></div></div>",exposure,275234,138,html-keyboard-response,fill_word,Money,NA,NA,NA,LEFT,
24,condition1,,,,,,0.0-139.0,,,,,,,,,,audio/unambiguous_p/Browl_Prowl_2_00.wav,,276990,139,audio-keyboard-response,,,,,,,
24,condition1,Prowl,coda-onset,,yes,control,0.0-140.0,83,SAME,DIFFERENT,NA,audio/unambiguous_p/Browl_Prowl_2_00.wav,NA,,418.135,0,"<div class=""big-container""><p class=""exposure-prompt"">Prowl</p><div class=""yes-no""><div class=""option-container""><p>SAME</p><p>Press S</p></div><div class=""option-container""><p>DIFFERENT</p><p>Press K</p></div></div></div>",exposure,277410,140,html-keyboard-response,crit_unamb,Prowl,NA,NA,NA,LEFT,
24,condition1,,,,,,0.0-141.0,,,,,,,,,,audio/unambiguous_b/Ballerina_Pallerina_1_30.wav,,279305,141,audio-keyboard-response,,,,,,,
24,condition1,Ballerina,coda-onset,,yes,control,0.0-142.0,83,SAME,DIFFERENT,NA,audio/unambiguous_b/Ballerina_Pallerina_1_30.wav,NA,,619.11,30,"<div class=""big-container""><p class=""exposure-prompt"">Ballerina</p><div class=""yes-no""><div class=""option-container""><p>SAME</p><p>Press S</p></div><div class=""option-container""><p>DIFFERENT</p><p>Press K</p></div></div></div>",exposure,279926,142,html-keyboard-response,crit_unamb,Ballerina,NA,NA,NA,LEFT,
24,condition1,,,,,,0.0-143.0,,,,,,,,,,audio/filler/Marine_1.wav,,281811,143,audio-keyboard-response,,,,,,,
24,condition1,Marine,coda-onset,,no,control,0.0-144.0,75,SAME,DIFFERENT,NA,audio/filler/Marine_1.wav,NA,,650.615,NA,"<div class=""big-container""><p class=""exposure-prompt"">Mature</p><div class=""yes-no""><div class=""option-container""><p>SAME</p><p>Press S</p></div><div class=""option-container""><p>DIFFERENT</p><p>Press K</p></div></div></div>",exposure,282464,144,html-keyboard-response,fill_word,Mature,NA,NA,NA,LEFT,
24,condition1,,,,,,0.0-145.0,,,,,,,,,,audio/unambiguous_p/Bawn_Pawn_2_00.wav,,284169,145,audio-keyboard-response,,,,,,,
24,condition1,Pawn,coda-onset,,yes,control,0.0-146.0,83,SAME,DIFFERENT,NA,audio/unambiguous_p/Bawn_Pawn_2_00.wav,NA,,533.585,0,"<div class=""big-container""><p class=""exposure-prompt"">Pawn</p><div class=""yes-no""><div class=""option-container""><p>SAME</p><p>Press S</p></div><div class=""option-container""><p>DIFFERENT</p><p>Press K</p></div></div></div>",exposure,284704,146,html-keyboard-response,crit_unamb,Pawn,NA,NA,NA,LEFT,
24,condition1,,,,,,0.0-147.0,,,,,,,,,,audio/filler/Phenomenon_1.wav,,286707,147,audio-keyboard-response,,,,,,,
24,condition1,Phenomenon,coda-onset,,no,control,0.0-148.0,75,SAME,DIFFERENT,NA,audio/filler/Phenomenon_1.wav,NA,,857.48,NA,"<div class=""big-container""><p class=""exposure-prompt"">Replace</p><div class=""yes-no""><div class=""option-container""><p>SAME</p><p>Press S</p></div><div class=""option-container""><p>DIFFERENT</p><p>Press K</p></div></div></div>",exposure,287566,148,html-keyboard-response,fill_word,Replace,NA,NA,NA,LEFT,
24,condition1,,,,,,0.0-149.0,,,,,,,,,,audio/filler/Soil_1.wav,,289353,149,audio-keyboard-response,,,,,,,
24,condition1,Soil,coda-onset,,no,control,0.0-150.0,75,SAME,DIFFERENT,NA,audio/filler/Soil_1.wav,NA,,1009.345,NA,"<div class=""big-container""><p class=""exposure-prompt"">Spoil</p><div class=""yes-no""><div class=""option-container""><p>SAME</p><p>Press S</p></div><div class=""option-container""><p>DIFFERENT</p><p>Press K</p></div></div></div>",exposure,290363,150,html-keyboard-response,fill_word,Spoil,NA,NA,NA,LEFT,
24,condition1,,,,,,0.0-151.0,,,,,,,,,,audio/filler/Eye_1.wav,,291977,151,audio-keyboard-response,,,,,,,
24,condition1,Eye,coda-onset,,no,control,0.0-152.0,75,SAME,DIFFERENT,NA,audio/filler/Eye_1.wav,NA,,459.915,NA,"<div class=""big-container""><p class=""exposure-prompt"">Verdict</p><div class=""yes-no""><div class=""option-container""><p>SAME</p><p>Press S</p></div><div class=""option-container""><p>DIFFERENT</p><p>Press K</p></div></div></div>",exposure,292438,152,html-keyboard-response,fill_word,Verdict,NA,NA,NA,LEFT,
24,condition1,,,,,,0.0-153.0,,,,,,,,,,audio/filler/Roar_1.wav,,294132,153,audio-keyboard-response,,,,,,,
24,condition1,Roar,coda-onset,,yes,control,0.0-154.0,83,SAME,DIFFERENT,NA,audio/filler/Roar_1.wav,NA,,623.92,NA,"<div class=""big-container""><p class=""exposure-prompt"">Roar</p><div class=""yes-no""><div class=""option-container""><p>SAME</p><p>Press S</p></div><div class=""option-container""><p>DIFFERENT</p><p>Press K</p></div></div></div>",exposure,294757,154,html-keyboard-response,fill_word,Roar,NA,NA,NA,LEFT,
24,condition1,,,,,,0.0-155.0,,,,,,,,,,audio/filler/Frame_1.wav,,296542,155,audio-keyboard-response,,,,,,,
24,condition1,Frame,coda-onset,,no,control,0.0-156.0,75,SAME,DIFFERENT,NA,audio/filler/Frame_1.wav,NA,,512.29,NA,"<div class=""big-container""><p class=""exposure-prompt"">Frown</p><div class=""yes-no""><div class=""option-container""><p>SAME</p><p>Press S</p></div><div class=""option-container""><p>DIFFERENT</p><p>Press K</p></div></div></div>",exposure,297056,156,html-keyboard-response,fill_word,Frown,NA,NA,NA,LEFT,
24,condition1,,,,,,0.0-157.0,,,,,,,,,,audio/unambiguous_b/Burial_Purial_1_30.wav,,298921,157,audio-keyboard-response,,,,,,,
24,condition1,Burial,coda-onset,,yes,control,0.0-158.0,83,SAME,DIFFERENT,NA,audio/unambiguous_b/Burial_Purial_1_30.wav,NA,,355.37,30,"<div class=""big-container""><p class=""exposure-prompt"">Burial</p><div class=""yes-no""><div class=""option-container""><p>SAME</p><p>Press S</p></div><div class=""option-container""><p>DIFFERENT</p><p>Press K</p></div></div></div>",exposure,299279,158,html-keyboard-response,crit_unamb,Burial,NA,NA,NA,LEFT,
24,condition1,,,,,,0.0-159.0,,,,,,,,,,audio/unambiguous_b/Blue_Plue_1_30.wav,,300916,159,audio-keyboard-response,,,,,,,
24,condition1,Blue,coda-onset,,no,control,0.0-160.0,75,SAME,DIFFERENT,NA,audio/unambiguous_b/Blue_Plue_1_30.wav,NA,,594.7,30,"<div class=""big-container""><p class=""exposure-prompt"">Colleague</p><div class=""yes-no""><div class=""option-container""><p>SAME</p><p>Press S</p></div><div class=""option-container""><p>DIFFERENT</p><p>Press K</p></div></div></div>",exposure,301512,160,html-keyboard-response,crit_unamb,Colleague,NA,NA,NA,LEFT,
24,condition1,,,,,,0.0-161.0,,,,,,,,,,audio/filler/Hole_1.wav,,303102,161,audio-keyboard-response,,,,,,,
24,condition1,Hole,coda-onset,,no,control,0.0-162.0,75,SAME,DIFFERENT,NA,audio/filler/Hole_1.wav,NA,,656.96,NA,"<div class=""big-container""><p class=""exposure-prompt"">Hurl</p><div class=""yes-no""><div class=""option-container""><p>SAME</p><p>Press S</p></div><div class=""option-container""><p>DIFFERENT</p><p>Press K</p></div></div></div>",exposure,303760,162,html-keyboard-response,fill_word,Hurl,NA,NA,NA,LEFT,
24,condition1,,,,,,0.0-163.0,,,,,,,,,,audio/unambiguous_p/Brimal_Primal_2_00.wav,,305492,163,audio-keyboard-response,,,,,,,
24,condition1,Primal,coda-onset,,yes,control,0.0-164.0,83,SAME,DIFFERENT,NA,audio/unambiguous_p/Brimal_Primal_2_00.wav,NA,,614.815,0,"<div class=""big-container""><p class=""exposure-prompt"">Primal</p><div class=""yes-no""><div class=""option-container""><p>SAME</p><p>Press S</p></div><div class=""option-container""><p>DIFFERENT</p><p>Press K</p></div></div></div>",exposure,306108,164,html-keyboard-response,crit_unamb,Primal,NA,NA,NA,LEFT,
24,condition1,,,,,,0.0-165.0,,,,,,,,,,audio/unambiguous_p/Bremier_Premier_2_00.wav,,307838,165,audio-keyboard-response,,,,,,,
24,condition1,Premier,coda-onset,,yes,control,0.0-166.0,83,SAME,DIFFERENT,NA,audio/unambiguous_p/Bremier_Premier_2_00.wav,NA,,412.765,0,"<div class=""big-container""><p class=""exposure-prompt"">Premier</p><div class=""yes-no""><div class=""option-container""><p>SAME</p><p>Press S</p></div><div class=""option-container""><p>DIFFERENT</p><p>Press K</p></div></div></div>",exposure,308252,166,html-keyboard-response,crit_unamb,Premier,NA,NA,NA,LEFT,
24,condition1,,,,,,0.0-167.0,,,,,,,,,,audio/unambiguous_b/Barren_Parren_3_30.wav,,309918,167,audio-keyboard-response,,,,,,,
24,condition1,Barren,coda-onset,,yes,control,0.0-168.0,83,SAME,DIFFERENT,NA,audio/unambiguous_b/Barren_Parren_3_30.wav,NA,,751.405,30,"<div class=""big-container""><p class=""exposure-prompt"">Barren</p><div class=""yes-no""><div class=""option-container""><p>SAME</p><p>Press S</p></div><div class=""option-container""><p>DIFFERENT</p><p>Press K</p></div></div></div>",exposure,310671,168,html-keyboard-response,crit_unamb,Barren,NA,NA,NA,LEFT,
24,condition1,,,,,,0.0-169.0,,,,,,,,,,audio/filler/Hang_1.wav,,312329,169,audio-keyboard-response,,,,,,,
24,condition1,Hang,coda-onset,,yes,control,0.0-170.0,83,SAME,DIFFERENT,NA,audio/filler/Hang_1.wav,NA,,570.805,NA,"<div class=""big-container""><p class=""exposure-prompt"">Hang</p><div class=""yes-no""><div class=""option-container""><p>SAME</p><p>Press S</p></div><div class=""option-container""><p>DIFFERENT</p><p>Press K</p></div></div></div>",exposure,312901,170,html-keyboard-response,fill_word,Hang,NA,NA,NA,LEFT,
24,condition1,,,,,,0.0-171.0,,,,,,,,,,audio/unambiguous_p/Bylon_Pylon_2_00.wav,,314697,171,audio-keyboard-response,,,,,,,
24,condition1,Pylon,coda-onset,,yes,control,0.0-172.0,83,SAME,DIFFERENT,NA,audio/unambiguous_p/Bylon_Pylon_2_00.wav,NA,,639.62,0,"<div class=""big-container""><p class=""exposure-prompt"">Pylon</p><div class=""yes-no""><div class=""option-container""><p>SAME</p><p>Press S</p></div><div class=""option-container""><p>DIFFERENT</p><p>Press K</p></div></div></div>",exposure,315338,172,html-keyboard-response,crit_unamb,Pylon,NA,NA,NA,LEFT,
24,condition1,,,,,,0.0-173.0,,,,,,,,,,audio/filler/Valley_1.wav,,317075,173,audio-keyboard-response,,,,,,,
24,condition1,Valley,coda-onset,,no,control,0.0-174.0,75,SAME,DIFFERENT,NA,audio/filler/Valley_1.wav,NA,,448.3,NA,"<div class=""big-container""><p class=""exposure-prompt"">Greeting</p><div class=""yes-no""><div class=""option-container""><p>SAME</p><p>Press S</p></div><div class=""option-container""><p>DIFFERENT</p><p>Press K</p></div></div></div>",exposure,317525,174,html-keyboard-response,fill_word,Greeting,NA,NA,NA,LEFT,
24,condition1,,,,,,0.0-175.0,,,,,,,,,,audio/unambiguous_p/Berform_Perform_2_00.wav,,319465,175,audio-keyboard-response,,,,,,,
24,condition1,Perform,coda-onset,,yes,control,0.0-176.0,83,SAME,DIFFERENT,NA,audio/unambiguous_p/Berform_Perform_2_00.wav,NA,,384.255,0,"<div class=""big-container""><p class=""exposure-prompt"">Perform</p><div class=""yes-no""><div class=""option-container""><p>SAME</p><p>Press S</p></div><div class=""option-container""><p>DIFFERENT</p><p>Press K</p></div></div></div>",exposure,319851,176,html-keyboard-response,crit_unamb,Perform,NA,NA,NA,LEFT,
24,condition1,,,,,,0.0-177.0,,,,,,,,,,audio/filler/Flower_1.wav,,321641,177,audio-keyboard-response,,,,,,,
24,condition1,Flower,coda-onset,,no,control,0.0-178.0,75,SAME,DIFFERENT,NA,audio/filler/Flower_1.wav,NA,,583.555,NA,"<div class=""big-container""><p class=""exposure-prompt"">Flourish</p><div class=""yes-no""><div class=""option-container""><p>SAME</p><p>Press S</p></div><div class=""option-container""><p>DIFFERENT</p><p>Press K</p></div></div></div>",exposure,322226,178,html-keyboard-response,fill_word,Flourish,NA,NA,NA,LEFT,
24,condition1,,,,,,0.0-179.0,,,,,,,,,,audio/filler/Horn_1.wav,,323913,179,audio-keyboard-response,,,,,,,
24,condition1,Horn,coda-onset,,no,control,0.0-180.0,75,SAME,DIFFERENT,NA,audio/filler/Horn_1.wav,NA,,545.405,NA,"<div class=""big-container""><p class=""exposure-prompt"">Heel</p><div class=""yes-no""><div class=""option-container""><p>SAME</p><p>Press S</p></div><div class=""option-container""><p>DIFFERENT</p><p>Press K</p></div></div></div>",exposure,324460,180,html-keyboard-response,fill_word,Heel,NA,NA,NA,LEFT,
24,condition1,,,,,,0.0-181.0,,,,,,,,,,audio/filler/Reign_1.wav,,326153,181,audio-keyboard-response,,,,,,,
24,condition1,Reign,coda-onset,,no,control,0.0-182.0,75,SAME,DIFFERENT,NA,audio/filler/Reign_1.wav,NA,,601.245,NA,"<div class=""big-container""><p class=""exposure-prompt"">Kettle</p><div class=""yes-no""><div class=""option-container""><p>SAME</p><p>Press S</p></div><div class=""option-container""><p>DIFFERENT</p><p>Press K</p></div></div></div>",exposure,326756,182,html-keyboard-response,fill_word,Kettle,NA,NA,NA,LEFT,
24,condition1,,,,,,0.0-183.0,,,,,,,,,,audio/unambiguous_p/Brayer_Prayer_2_00.wav,,328521,183,audio-keyboard-response,,,,,,,
24,condition1,Prayer,coda-onset,,yes,control,0.0-184.0,83,SAME,DIFFERENT,NA,audio/unambiguous_p/Brayer_Prayer_2_00.wav,NA,,439.535,0,"<div class=""big-container""><p class=""exposure-prompt"">Prayer</p><div class=""yes-no""><div class=""option-container""><p>SAME</p><p>Press S</p></div><div class=""option-container""><p>DIFFERENT</p><p>Press K</p></div></div></div>",exposure,328962,184,html-keyboard-response,crit_unamb,Prayer,NA,NA,NA,LEFT,
24,condition1,,,,,,0.0-185.0,,,,,,,,,,audio/filler/Range_1.wav,,330868,185,audio-keyboard-response,,,,,,,
24,condition1,Range,coda-onset,,no,control,0.0-186.0,75,SAME,DIFFERENT,NA,audio/filler/Range_1.wav,NA,,512.445,NA,"<div class=""big-container""><p class=""exposure-prompt"">Spirit</p><div class=""yes-no""><div class=""option-container""><p>SAME</p><p>Press S</p></div><div class=""option-container""><p>DIFFERENT</p><p>Press K</p></div></div></div>",exposure,331382,186,html-keyboard-response,fill_word,Spirit,NA,NA,NA,LEFT,
24,condition1,,,,,,0.0-187.0,,,,,,,,,,audio/unambiguous_b/Barely_Parely_1_30.wav,,333310,187,audio-keyboard-response,,,,,,,
24,condition1,Barely,coda-onset,,yes,control,0.0-188.0,83,SAME,DIFFERENT,NA,audio/unambiguous_b/Barely_Parely_1_30.wav,NA,,703.98,30,"<div class=""big-container""><p class=""exposure-prompt"">Barely</p><div class=""yes-no""><div class=""option-container""><p>SAME</p><p>Press S</p></div><div class=""option-container""><p>DIFFERENT</p><p>Press K</p></div></div></div>",exposure,334016,188,html-keyboard-response,crit_unamb,Barely,NA,NA,NA,LEFT,
24,condition1,,,,,,0.0-189.0,,,,,,,,,,audio/filler/Ensure_1.wav,,335806,189,audio-keyboard-response,,,,,,,
24,condition1,Ensure,coda-onset,,yes,control,0.0-190.0,83,SAME,DIFFERENT,NA,audio/filler/Ensure_1.wav,NA,,885.055,NA,"<div class=""big-container""><p class=""exposure-prompt"">Ensure</p><div class=""yes-no""><div class=""option-container""><p>SAME</p><p>Press S</p></div><div class=""option-container""><p>DIFFERENT</p><p>Press K</p></div></div></div>",exposure,336692,190,html-keyboard-response,fill_word,Ensure,NA,NA,NA,LEFT,
24,condition1,,,,,,0.0-191.0,,,,,,,,,,audio/unambiguous_p/Brime_Prime_2_00.wav,,338430,191,audio-keyboard-response,,,,,,,
24,condition1,Prime,coda-onset,,yes,control,0.0-192.0,83,SAME,DIFFERENT,NA,audio/unambiguous_p/Brime_Prime_2_00.wav,NA,,908.605,0,"<div class=""big-container""><p class=""exposure-prompt"">Prime</p><div class=""yes-no""><div class=""option-container""><p>SAME</p><p>Press S</p></div><div class=""option-container""><p>DIFFERENT</p><p>Press K</p></div></div></div>",exposure,339341,192,html-keyboard-response,crit_unamb,Prime,NA,NA,NA,LEFT,
24,condition1,,,,,,0.0-193.0,,,,,,,,,,audio/filler/Error_1.wav,,340958,193,audio-keyboard-response,,,,,,,
24,condition1,Error,coda-onset,,no,control,0.0-194.0,75,SAME,DIFFERENT,NA,audio/filler/Error_1.wav,NA,,568.385,NA,"<div class=""big-container""><p class=""exposure-prompt"">Lonely</p><div class=""yes-no""><div class=""option-container""><p>SAME</p><p>Press S</p></div><div class=""option-container""><p>DIFFERENT</p><p>Press K</p></div></div></div>",exposure,341528,194,html-keyboard-response,fill_word,Lonely,NA,NA,NA,LEFT,
24,condition1,,,,,,0.0-195.0,,,,,,,,,,audio/unambiguous_b/Baloney_Paloney_1_30.wav,,343348,195,audio-keyboard-response,,,,,,,
24,condition1,Baloney,coda-onset,,yes,control,0.0-196.0,83,SAME,DIFFERENT,NA,audio/unambiguous_b/Baloney_Paloney_1_30.wav,NA,,734.505,30,"<div class=""big-container""><p class=""exposure-prompt"">Baloney</p><div class=""yes-no""><div class=""option-container""><p>SAME</p><p>Press S</p></div><div class=""option-container""><p>DIFFERENT</p><p>Press K</p></div></div></div>",exposure,344084,196,html-keyboard-response,crit_unamb,Baloney,NA,NA,NA,LEFT,
24,condition1,,,,,,0.0-197.0,,,,,,,,,,audio/filler/Sailor_1.wav,,345897,197,audio-keyboard-response,,,,,,,
24,condition1,Sailor,coda-onset,,no,control,0.0-198.0,75,SAME,DIFFERENT,NA,audio/filler/Sailor_1.wav,NA,,619.18,NA,"<div class=""big-container""><p class=""exposure-prompt"">Mine</p><div class=""yes-no""><div class=""option-container""><p>SAME</p><p>Press S</p></div><div class=""option-container""><p>DIFFERENT</p><p>Press K</p></div></div></div>",exposure,346517,198,html-keyboard-response,fill_word,Mine,NA,NA,NA,LEFT,
24,condition1,,,,,,0.0-199.0,,,,,,,,,,audio/filler/Rally_1.wav,,348254,199,audio-keyboard-response,,,,,,,
24,condition1,Rally,coda-onset,,no,control,0.0-200.0,75,SAME,DIFFERENT,NA,audio/filler/Rally_1.wav,NA,,474.015,NA,"<div class=""big-container""><p class=""exposure-prompt"">Knowledge</p><div class=""yes-no""><div class=""option-container""><p>SAME</p><p>Press S</p></div><div class=""option-container""><p>DIFFERENT</p><p>Press K</p></div></div></div>",exposure,348729,200,html-keyboard-response,fill_word,Knowledge,NA,NA,NA,LEFT,
24,condition1,,,,,,0.0-201.0,,,,,,,,,,audio/unambiguous_p/Blyer_Plyer_2_00.wav,,350473,201,audio-keyboard-response,,,,,,,
24,condition1,Plyer,coda-onset,,yes,control,0.0-202.0,83,SAME,DIFFERENT,NA,audio/unambiguous_p/Blyer_Plyer_2_00.wav,NA,,741.43,0,"<div class=""big-container""><p class=""exposure-prompt"">Plyer</p><div class=""yes-no""><div class=""option-container""><p>SAME</p><p>Press S</p></div><div class=""option-container""><p>DIFFERENT</p><p>Press K</p></div></div></div>",exposure,351216,202,html-keyboard-response,crit_unamb,Plyer,NA,NA,NA,LEFT,
24,condition1,,,,,,0.0-203.0,32,,,,,,,15334.44,,"<div class=""pre-test-container""><p>Great Job! You finished the first part of the Experiment!<br><br>In the second part of the experiment, you will hear the talker say syllables, like <em>ahb</em> or <em>ahp</em> Your job is to tell us what the last sound of each syllable is.<br><br> You will hear a lot of syllables that sound quite similar.<br><br>Do your best, and respond as quickly and accurately as you can, identifying the last sound of the syllable.<br><br>Please place your fingers again on the S and K buttons, and follow the prompts to make your choices.<br><br>Press the space bar to continue.</p></div>",,367552,203,html-keyboard-response,,,,,,,
24,condition1,UHB_UHP_5_00,coda-onset,,NA,control,0.0-204.0,75,NA,NA,8,audio/coda_syllables/UHB_UHP_5_00.wav,2,,2091,0,audio/coda_syllables/UHB_UHP_5_00.wav,test_coda,370648,204,audio-keyboard-response,coda_syllable,NA,B,P,UH,LEFT,
24,condition1,AAB_AAP_1_16,coda-onset,,NA,control,0.0-205.0,83,NA,NA,11,audio/coda_syllables/AAB_AAP_1_16.wav,3,,1835,16,audio/coda_syllables/AAB_AAP_1_16.wav,test_coda,373486,205,audio-keyboard-response,coda_syllable,NA,B,P,AA,LEFT,
24,condition1,IHB_IHP_5_07,coda-onset,,NA,control,0.0-206.0,75,NA,NA,7,audio/coda_syllables/IHB_IHP_5_07.wav,1,,1067,7,audio/coda_syllables/IHB_IHP_5_07.wav,test_coda,375551,206,audio-keyboard-response,coda_syllable,NA,B,P,IH,LEFT,
24,condition1,AAB_AAP_1_09,coda-onset,,NA,control,0.0-207.0,83,NA,NA,11,audio/coda_syllables/AAB_AAP_1_09.wav,2,,1792,9,audio/coda_syllables/AAB_AAP_1_09.wav,test_coda,378349,207,audio-keyboard-response,coda_syllable,NA,B,P,AA,LEFT,
24,condition1,AHB_AHP_3_16,coda-onset,,NA,control,0.0-208.0,75,NA,NA,14,audio/coda_syllables/AHB_AHP_3_16.wav,2,,1056,16,audio/coda_syllables/AHB_AHP_3_16.wav,test_coda,380405,208,audio-keyboard-response,coda_syllable,NA,B,P,AH,LEFT,
24,condition1,UHB_UHP_5_13,coda-onset,,NA,control,0.0-209.0,75,NA,NA,8,audio/coda_syllables/UHB_UHP_5_13.wav,3,,1483,13,audio/coda_syllables/UHB_UHP_5_13.wav,test_coda,382895,209,audio-keyboard-response,coda_syllable,NA,B,P,UH,LEFT,
24,condition1,AAB_AAP_1_13,coda-onset,,NA,control,0.0-210.0,75,NA,NA,11,audio/coda_syllables/AAB_AAP_1_13.wav,2,,1163,13,audio/coda_syllables/AAB_AAP_1_13.wav,test_coda,385055,210,audio-keyboard-response,coda_syllable,NA,B,P,AA,LEFT,
24,condition1,AAB_AAP_1_13,coda-onset,,NA,control,0.0-211.0,75,NA,NA,11,audio/coda_syllables/AAB_AAP_1_13.wav,1,,960,13,audio/coda_syllables/AAB_AAP_1_13.wav,test_coda,387017,211,audio-keyboard-response,coda_syllable,NA,B,P,AA,LEFT,
24,condition1,AAB_AAP_1_16,coda-onset,,NA,control,0.0-212.0,75,NA,NA,11,audio/coda_syllables/AAB_AAP_1_16.wav,1,,1088,16,audio/coda_syllables/AAB_AAP_1_16.wav,test_coda,389116,212,audio-keyboard-response,coda_syllable,NA,B,P,AA,LEFT,
24,condition1,AHB_AHP_3_07,coda-onset,,NA,control,0.0-213.0,75,NA,NA,14,audio/coda_syllables/AHB_AHP_3_07.wav,3,,992,7,audio/coda_syllables/AHB_AHP_3_07.wav,test_coda,391109,213,audio-keyboard-response,coda_syllable,NA,B,P,AH,LEFT,
24,condition1,IHB_IHP_5_30,coda-onset,,NA,control,0.0-214.0,83,NA,NA,7,audio/coda_syllables/IHB_IHP_5_30.wav,3,,1397,30,audio/coda_syllables/IHB_IHP_5_30.wav,test_coda,393507,214,audio-keyboard-response,coda_syllable,NA,B,P,IH,LEFT,
24,condition1,AHB_AHP_3_30,coda-onset,,NA,control,0.0-215.0,83,NA,NA,14,audio/coda_syllables/AHB_AHP_3_30.wav,3,,1451,30,audio/coda_syllables/AHB_AHP_3_30.wav,test_coda,395956,215,audio-keyboard-response,coda_syllable,NA,B,P,AH,LEFT,
24,condition1,AHB_AHP_3_09,coda-onset,,NA,control,0.0-216.0,75,NA,NA,14,audio/coda_syllables/AHB_AHP_3_09.wav,3,,949,9,audio/coda_syllables/AHB_AHP_3_09.wav,test_coda,397907,216,audio-keyboard-response,coda_syllable,NA,B,P,AH,LEFT,
24,condition1,IHB_IHP_5_16,coda-onset,,NA,control,0.0-217.0,75,NA,NA,7,audio/coda_syllables/IHB_IHP_5_16.wav,2,,1035,16,audio/coda_syllables/IHB_IHP_5_16.wav,test_coda,399948,217,audio-keyboard-response,coda_syllable,NA,B,P,IH,LEFT,
24,condition1,UHB_UHP_5_07,coda-onset,,NA,control,0.0-218.0,75,NA,NA,8,audio/coda_syllables/UHB_UHP_5_07.wav,2,,1205,7,audio/coda_syllables/UHB_UHP_5_07.wav,test_coda,402163,218,audio-keyboard-response,coda_syllable,NA,B,P,UH,LEFT,
24,condition1,IHB_IHP_5_00,coda-onset,,NA,control,0.0-219.0,75,NA,NA,7,audio/coda_syllables/IHB_IHP_5_00.wav,3,,917,0,audio/coda_syllables/IHB_IHP_5_00.wav,test_coda,404077,219,audio-keyboard-response,coda_syllable,NA,B,P,IH,LEFT,
24,condition1,IHB_IHP_5_07,coda-onset,,NA,control,0.0-220.0,75,NA,NA,7,audio/coda_syllables/IHB_IHP_5_07.wav,3,,1056,7,audio/coda_syllables/IHB_IHP_5_07.wav,test_coda,406136,220,audio-keyboard-response,coda_syllable,NA,B,P,IH,LEFT,
24,condition1,AHB_AHP_3_13,coda-onset,,NA,control,0.0-221.0,75,NA,NA,14,audio/coda_syllables/AHB_AHP_3_13.wav,2,,992,13,audio/coda_syllables/AHB_AHP_3_13.wav,test_coda,408133,221,audio-keyboard-response,coda_syllable,NA,B,P,AH,LEFT,
24,condition1,UHB_UHP_5_09,coda-onset,,NA,control,0.0-222.0,75,NA,NA,8,audio/coda_syllables/UHB_UHP_5_09.wav,2,,981,9,audio/coda_syllables/UHB_UHP_5_09.wav,test_coda,410119,222,audio-keyboard-response,coda_syllable,NA,B,P,UH,LEFT,
24,condition1,UHB_UHP_5_25,coda-onset,,NA,control,0.0-223.0,83,NA,NA,8,audio/coda_syllables/UHB_UHP_5_25.wav,1,,939,25,audio/coda_syllables/UHB_UHP_5_25.wav,test_coda,412059,223,audio-keyboard-response,coda_syllable,NA,B,P,UH,LEFT,
24,condition1,AAB_AAP_1_07,coda-onset,,NA,control,0.0-224.0,75,NA,NA,11,audio/coda_syllables/AAB_AAP_1_07.wav,1,,875,7,audio/coda_syllables/AAB_AAP_1_07.wav,test_coda,413930,224,audio-keyboard-response,coda_syllable,NA,B,P,AA,LEFT,
24,condition1,AHB_AHP_3_13,coda-onset,,NA,control,0.0-225.0,75,NA,NA,14,audio/coda_syllables/AHB_AHP_3_13.wav,1,,885,13,audio/coda_syllables/AHB_AHP_3_13.wav,test_coda,415824,225,audio-keyboard-response,coda_syllable,NA,B,P,AH,LEFT,
24,condition1,IHB_IHP_5_04,coda-onset,,NA,control,0.0-226.0,75,NA,NA,7,audio/coda_syllables/IHB_IHP_5_04.wav,3,,832,4,audio/coda_syllables/IHB_IHP_5_04.wav,test_coda,417662,226,audio-keyboard-response,coda_syllable,NA,B,P,IH,LEFT,
24,condition1,UHB_UHP_5_20,coda-onset,,NA,control,0.0-227.0,83,NA,NA,8,audio/coda_syllables/UHB_UHP_5_20.wav,1,,843,20,audio/coda_syllables/UHB_UHP_5_20.wav,test_coda,419507,227,audio-keyboard-response,coda_syllable,NA,B,P,UH,LEFT,
24,condition1,UHB_UHP_5_13,coda-onset,,NA,control,0.0-228.0,83,NA,NA,8,audio/coda_syllables/UHB_UHP_5_13.wav,2,,864,13,audio/coda_syllables/UHB_UHP_5_13.wav,test_coda,421375,228,audio-keyboard-response,coda_syllable,NA,B,P,UH,LEFT,
24,condition1,IHB_IHP_5_07,coda-onset,,NA,control,0.0-229.0,75,NA,NA,7,audio/coda_syllables/IHB_IHP_5_07.wav,2,,1088,7,audio/coda_syllables/IHB_IHP_5_07.wav,test_coda,423474,229,audio-keyboard-response,coda_syllable,NA,B,P,IH,LEFT,
24,condition1,UHB_UHP_5_16,coda-onset,,NA,control,0.0-230.0,75,NA,NA,8,audio/coda_syllables/UHB_UHP_5_16.wav,3,,1248,16,audio/coda_syllables/UHB_UHP_5_16.wav,test_coda,425715,230,audio-keyboard-response,coda_syllable,NA,B,P,UH,LEFT,
24,condition1,IHB_IHP_5_13,coda-onset,,NA,control,0.0-231.0,75,NA,NA,7,audio/coda_syllables/IHB_IHP_5_13.wav,3,,864,13,audio/coda_syllables/IHB_IHP_5_13.wav,test_coda,427577,231,audio-keyboard-response,coda_syllable,NA,B,P,IH,LEFT,
24,condition1,UHB_UHP_5_09,coda-onset,,NA,control,0.0-232.0,75,NA,NA,8,audio/coda_syllables/UHB_UHP_5_09.wav,1,,832,9,audio/coda_syllables/UHB_UHP_5_09.wav,test_coda,429414,232,audio-keyboard-response,coda_syllable,NA,B,P,UH,LEFT,
24,condition1,UHB_UHP_5_13,coda-onset,,NA,control,0.0-233.0,75,NA,NA,8,audio/coda_syllables/UHB_UHP_5_13.wav,1,,875,13,audio/coda_syllables/UHB_UHP_5_13.wav,test_coda,431293,233,audio-keyboard-response,coda_syllable,NA,B,P,UH,LEFT,
24,condition1,AHB_AHP_3_07,coda-onset,,NA,control,0.0-234.0,75,NA,NA,14,audio/coda_syllables/AHB_AHP_3_07.wav,1,,800,7,audio/coda_syllables/AHB_AHP_3_07.wav,test_coda,433092,234,audio-keyboard-response,coda_syllable,NA,B,P,AH,LEFT,
24,condition1,AAB_AAP_1_30,coda-onset,,NA,control,0.0-235.0,83,NA,NA,11,audio/coda_syllables/AAB_AAP_1_30.wav,2,,896,30,audio/coda_syllables/AAB_AAP_1_30.wav,test_coda,434990,235,audio-keyboard-response,coda_syllable,NA,B,P,AA,LEFT,
24,condition1,AAB_AAP_1_04,coda-onset,,NA,control,0.0-236.0,75,NA,NA,11,audio/coda_syllables/AAB_AAP_1_04.wav,3,,960,4,audio/coda_syllables/AAB_AAP_1_04.wav,test_coda,436953,236,audio-keyboard-response,coda_syllable,NA,B,P,AA,LEFT,
24,condition1,UHB_UHP_5_30,coda-onset,,NA,control,0.0-237.0,83,NA,NA,8,audio/coda_syllables/UHB_UHP_5_30.wav,3,,885,30,audio/coda_syllables/UHB_UHP_5_30.wav,test_coda,438842,237,audio-keyboard-response,coda_syllable,NA,B,P,UH,LEFT,
24,condition1,IHB_IHP_5_00,coda-onset,,NA,control,0.0-238.0,75,NA,NA,7,audio/coda_syllables/IHB_IHP_5_00.wav,2,,853,0,audio/coda_syllables/IHB_IHP_5_00.wav,test_coda,440702,238,audio-keyboard-response,coda_syllable,NA,B,P,IH,LEFT,
24,condition1,AAB_AAP_1_11,coda-onset,,NA,control,0.0-239.0,75,NA,NA,11,audio/coda_syllables/AAB_AAP_1_11.wav,2,,1088,11,audio/coda_syllables/AAB_AAP_1_11.wav,test_coda,442792,239,audio-keyboard-response,coda_syllable,NA,B,P,AA,LEFT,
24,condition1,AHB_AHP_3_20,coda-onset,,NA,control,0.0-240.0,75,NA,NA,14,audio/coda_syllables/AHB_AHP_3_20.wav,1,,885,20,audio/coda_syllables/AHB_AHP_3_20.wav,test_coda,444689,240,audio-keyboard-response,coda_syllable,NA,B,P,AH,LEFT,
24,condition1,UHB_UHP_5_04,coda-onset,,NA,control,0.0-241.0,75,NA,NA,8,audio/coda_syllables/UHB_UHP_5_04.wav,2,,864,4,audio/coda_syllables/UHB_UHP_5_04.wav,test_coda,446553,241,audio-keyboard-response,coda_syllable,NA,B,P,UH,LEFT,
24,condition1,IHB_IHP_5_04,coda-onset,,NA,control,0.0-242.0,75,NA,NA,7,audio/coda_syllables/IHB_IHP_5_04.wav,2,,821,4,audio/coda_syllables/IHB_IHP_5_04.wav,test_coda,448373,242,audio-keyboard-response,coda_syllable,NA,B,P,IH,LEFT,
24,condition1,AHB_AHP_3_25,coda-onset,,NA,control,0.0-243.0,75,NA,NA,14,audio/coda_syllables/AHB_AHP_3_25.wav,3,,821,25,audio/coda_syllables/AHB_AHP_3_25.wav,test_coda,450205,243,audio-keyboard-response,coda_syllable,NA,B,P,AH,LEFT,
24,condition1,IHB_IHP_5_13,coda-onset,,NA,control,0.0-244.0,75,NA,NA,7,audio/coda_syllables/IHB_IHP_5_13.wav,1,,875,13,audio/coda_syllables/IHB_IHP_5_13.wav,test_coda,452074,244,audio-keyboard-response,coda_syllable,NA,B,P,IH,LEFT,
24,condition1,AHB_AHP_3_20,coda-onset,,NA,control,0.0-245.0,75,NA,NA,14,audio/coda_syllables/AHB_AHP_3_20.wav,3,,811,20,audio/coda_syllables/AHB_AHP_3_20.wav,test_coda,453890,245,audio-keyboard-response,coda_syllable,NA,B,P,AH,LEFT,
24,condition1,UHB_UHP_5_25,coda-onset,,NA,control,0.0-246.0,83,NA,NA,8,audio/coda_syllables/UHB_UHP_5_25.wav,3,,971,25,audio/coda_syllables/UHB_UHP_5_25.wav,test_coda,455865,246,audio-keyboard-response,coda_syllable,NA,B,P,UH,LEFT,
24,condition1,IHB_IHP_5_00,coda-onset,,NA,control,0.0-247.0,75,NA,NA,7,audio/coda_syllables/IHB_IHP_5_00.wav,1,,907,0,audio/coda_syllables/IHB_IHP_5_00.wav,test_coda,457770,247,audio-keyboard-response,coda_syllable,NA,B,P,IH,LEFT,
24,condition1,IHB_IHP_5_09,coda-onset,,NA,control,0.0-248.0,75,NA,NA,7,audio/coda_syllables/IHB_IHP_5_09.wav,3,,821,9,audio/coda_syllables/IHB_IHP_5_09.wav,test_coda,459597,248,audio-keyboard-response,coda_syllable,NA,B,P,IH,LEFT,
24,condition1,AHB_AHP_3_09,coda-onset,,NA,control,0.0-249.0,75,NA,NA,14,audio/coda_syllables/AHB_AHP_3_09.wav,2,,949,9,audio/coda_syllables/AHB_AHP_3_09.wav,test_coda,461547,249,audio-keyboard-response,coda_syllable,NA,B,P,AH,LEFT,
24,condition1,AAB_AAP_1_25,coda-onset,,NA,control,0.0-250.0,83,NA,NA,11,audio/coda_syllables/AAB_AAP_1_25.wav,1,,907,25,audio/coda_syllables/AAB_AAP_1_25.wav,test_coda,463457,250,audio-keyboard-response,coda_syllable,NA,B,P,AA,LEFT,
24,condition1,AHB_AHP_3_16,coda-onset,,NA,control,0.0-251.0,75,NA,NA,14,audio/coda_syllables/AHB_AHP_3_16.wav,1,,1077,16,audio/coda_syllables/AHB_AHP_3_16.wav,test_coda,465541,251,audio-keyboard-response,coda_syllable,NA,B,P,AH,LEFT,
24,condition1,IHB_IHP_5_25,coda-onset,,NA,control,0.0-252.0,75,NA,NA,7,audio/coda_syllables/IHB_IHP_5_25.wav,1,,949,25,audio/coda_syllables/IHB_IHP_5_25.wav,test_coda,467496,252,audio-keyboard-response,coda_syllable,NA,B,P,IH,LEFT,
24,condition1,IHB_IHP_5_16,coda-onset,,NA,control,0.0-253.0,83,NA,NA,7,audio/coda_syllables/IHB_IHP_5_16.wav,1,,981,16,audio/coda_syllables/IHB_IHP_5_16.wav,test_coda,469472,253,audio-keyboard-response,coda_syllable,NA,B,P,IH,LEFT,
24,condition1,AHB_AHP_3_11,coda-onset,,NA,control,0.0-254.0,75,NA,NA,14,audio/coda_syllables/AHB_AHP_3_11.wav,1,,928,11,audio/coda_syllables/AHB_AHP_3_11.wav,test_coda,471406,254,audio-keyboard-response,coda_syllable,NA,B,P,AH,LEFT,
24,condition1,AAB_AAP_1_11,coda-onset,,NA,control,0.0-255.0,75,NA,NA,11,audio/coda_syllables/AAB_AAP_1_11.wav,3,,1227,11,audio/coda_syllables/AAB_AAP_1_11.wav,test_coda,473638,255,audio-keyboard-response,coda_syllable,NA,B,P,AA,LEFT,
24,condition1,AAB_AAP_1_25,coda-onset,,NA,control,0.0-256.0,83,NA,NA,11,audio/coda_syllables/AAB_AAP_1_25.wav,2,,960,25,audio/coda_syllables/AAB_AAP_1_25.wav,test_coda,475601,256,audio-keyboard-response,coda_syllable,NA,B,P,AA,LEFT,
24,condition1,AHB_AHP_3_30,coda-onset,,NA,control,0.0-257.0,83,NA,NA,14,audio/coda_syllables/AHB_AHP_3_30.wav,1,,949,30,audio/coda_syllables/AHB_AHP_3_30.wav,test_coda,477545,257,audio-keyboard-response,coda_syllable,NA,B,P,AH,LEFT,
24,condition1,AAB_AAP_1_20,coda-onset,,NA,control,0.0-258.0,83,NA,NA,11,audio/coda_syllables/AAB_AAP_1_20.wav,1,,896,20,audio/coda_syllables/AAB_AAP_1_20.wav,test_coda,479444,258,audio-keyboard-response,coda_syllable,NA,B,P,AA,LEFT,
24,condition1,UHB_UHP_5_20,coda-onset,,NA,control,0.0-259.0,83,NA,NA,8,audio/coda_syllables/UHB_UHP_5_20.wav,3,,832,20,audio/coda_syllables/UHB_UHP_5_20.wav,test_coda,481283,259,audio-keyboard-response,coda_syllable,NA,B,P,UH,LEFT,
24,condition1,UHB_UHP_5_11,coda-onset,,NA,control,0.0-260.0,75,NA,NA,8,audio/coda_syllables/UHB_UHP_5_11.wav,2,,1291,11,audio/coda_syllables/UHB_UHP_5_11.wav,test_coda,483577,260,audio-keyboard-response,coda_syllable,NA,B,P,UH,LEFT,
24,condition1,AHB_AHP_3_09,coda-onset,,NA,control,0.0-261.0,75,NA,NA,14,audio/coda_syllables/AHB_AHP_3_09.wav,1,,1099,9,audio/coda_syllables/AHB_AHP_3_09.wav,test_coda,485674,261,audio-keyboard-response,coda_syllable,NA,B,P,AH,LEFT,
24,condition1,UHB_UHP_5_11,coda-onset,,NA,control,0.0-262.0,75,NA,NA,8,audio/coda_syllables/UHB_UHP_5_11.wav,3,,1035,11,audio/coda_syllables/UHB_UHP_5_11.wav,test_coda,487715,262,audio-keyboard-response,coda_syllable,NA,B,P,UH,LEFT,
24,condition1,UHB_UHP_5_00,coda-onset,,NA,control,0.0-263.0,75,NA,NA,8,audio/coda_syllables/UHB_UHP_5_00.wav,3,,1109,0,audio/coda_syllables/UHB_UHP_5_00.wav,test_coda,489831,263,audio-keyboard-response,coda_syllable,NA,B,P,UH,LEFT,
24,condition1,AHB_AHP_3_04,coda-onset,,NA,control,0.0-264.0,75,NA,NA,14,audio/coda_syllables/AHB_AHP_3_04.wav,3,,885,4,audio/coda_syllables/AHB_AHP_3_04.wav,test_coda,491713,264,audio-keyboard-response,coda_syllable,NA,B,P,AH,LEFT,
24,condition1,IHB_IHP_5_30,coda-onset,,NA,control,0.0-265.0,83,NA,NA,7,audio/coda_syllables/IHB_IHP_5_30.wav,1,,1163,30,audio/coda_syllables/IHB_IHP_5_30.wav,test_coda,493879,265,audio-keyboard-response,coda_syllable,NA,B,P,IH,LEFT,
24,condition1,UHB_UHP_5_16,coda-onset,,NA,control,0.0-266.0,83,NA,NA,8,audio/coda_syllables/UHB_UHP_5_16.wav,2,,1291,16,audio/coda_syllables/UHB_UHP_5_16.wav,test_coda,496170,266,audio-keyboard-response,coda_syllable,NA,B,P,UH,LEFT,
24,condition1,UHB_UHP_5_11,coda-onset,,NA,control,0.0-267.0,75,NA,NA,8,audio/coda_syllables/UHB_UHP_5_11.wav,1,,1003,11,audio/coda_syllables/UHB_UHP_5_11.wav,test_coda,498181,267,audio-keyboard-response,coda_syllable,NA,B,P,UH,LEFT,
24,condition1,IHB_IHP_5_25,coda-onset,,NA,control,0.0-268.0,83,NA,NA,7,audio/coda_syllables/IHB_IHP_5_25.wav,3,,1056,25,audio/coda_syllables/IHB_IHP_5_25.wav,test_coda,500239,268,audio-keyboard-response,coda_syllable,NA,B,P,IH,LEFT,
24,condition1,AAB_AAP_1_30,coda-onset,,NA,control,0.0-269.0,83,NA,NA,11,audio/coda_syllables/AAB_AAP_1_30.wav,3,,949,30,audio/coda_syllables/AAB_AAP_1_30.wav,test_coda,502189,269,audio-keyboard-response,coda_syllable,NA,B,P,AA,LEFT,
24,condition1,IHB_IHP_5_20,coda-onset,,NA,control,0.0-270.0,83,NA,NA,7,audio/coda_syllables/IHB_IHP_5_20.wav,1,,1077,20,audio/coda_syllables/IHB_IHP_5_20.wav,test_coda,504265,270,audio-keyboard-response,coda_syllable,NA,B,P,IH,LEFT,
24,condition1,AHB_AHP_3_00,coda-onset,,NA,control,0.0-271.0,75,NA,NA,14,audio/coda_syllables/AHB_AHP_3_00.wav,1,,853,0,audio/coda_syllables/AHB_AHP_3_00.wav,test_coda,506124,271,audio-keyboard-response,coda_syllable,NA,B,P,AH,LEFT,
24,condition1,AAB_AAP_1_16,coda-onset,,NA,control,0.0-272.0,83,NA,NA,11,audio/coda_syllables/AAB_AAP_1_16.wav,2,,1003,16,audio/coda_syllables/AAB_AAP_1_16.wav,test_coda,508128,272,audio-keyboard-response,coda_syllable,NA,B,P,AA,LEFT,
24,condition1,AHB_AHP_3_30,coda-onset,,NA,control,0.0-273.0,83,NA,NA,14,audio/coda_syllables/AHB_AHP_3_30.wav,2,,981,30,audio/coda_syllables/AHB_AHP_3_30.wav,test_coda,510115,273,audio-keyboard-response,coda_syllable,NA,B,P,AH,LEFT,
24,condition1,AHB_AHP_3_25,coda-onset,,NA,control,0.0-274.0,83,NA,NA,14,audio/coda_syllables/AHB_AHP_3_25.wav,2,,875,25,audio/coda_syllables/AHB_AHP_3_25.wav,test_coda,511994,274,audio-keyboard-response,coda_syllable,NA,B,P,AH,LEFT,
24,condition1,IHB_IHP_5_13,coda-onset,,NA,control,0.0-275.0,75,NA,NA,7,audio/coda_syllables/IHB_IHP_5_13.wav,2,,1035,13,audio/coda_syllables/IHB_IHP_5_13.wav,test_coda,514034,275,audio-keyboard-response,coda_syllable,NA,B,P,IH,LEFT,
24,condition1,AAB_AAP_1_00,coda-onset,,NA,control,0.0-276.0,83,NA,NA,11,audio/coda_syllables/AAB_AAP_1_00.wav,3,,1088,0,audio/coda_syllables/AAB_AAP_1_00.wav,test_coda,516116,276,audio-keyboard-response,coda_syllable,NA,B,P,AA,LEFT,
24,condition1,AHB_AHP_3_20,coda-onset,,NA,control,0.0-277.0,83,NA,NA,14,audio/coda_syllables/AHB_AHP_3_20.wav,2,,1195,20,audio/coda_syllables/AHB_AHP_3_20.wav,test_coda,518321,277,audio-keyboard-response,coda_syllable,NA,B,P,AH,LEFT,
24,condition1,UHB_UHP_5_04,coda-onset,,NA,control,0.0-278.0,75,NA,NA,8,audio/coda_syllables/UHB_UHP_5_04.wav,1,,1205,4,audio/coda_syllables/UHB_UHP_5_04.wav,test_coda,520523,278,audio-keyboard-response,coda_syllable,NA,B,P,UH,LEFT,
24,condition1,UHB_UHP_5_00,coda-onset,,NA,control,0.0-279.0,75,NA,NA,8,audio/coda_syllables/UHB_UHP_5_00.wav,1,,939,0,audio/coda_syllables/UHB_UHP_5_00.wav,test_coda,522465,279,audio-keyboard-response,coda_syllable,NA,B,P,UH,LEFT,
24,condition1,IHB_IHP_5_25,coda-onset,,NA,control,0.0-280.0,75,NA,NA,7,audio/coda_syllables/IHB_IHP_5_25.wav,2,,917,25,audio/coda_syllables/IHB_IHP_5_25.wav,test_coda,524390,280,audio-keyboard-response,coda_syllable,NA,B,P,IH,LEFT,
24,condition1,UHB_UHP_5_30,coda-onset,,NA,control,0.0-281.0,83,NA,NA,8,audio/coda_syllables/UHB_UHP_5_30.wav,2,,1013,30,audio/coda_syllables/UHB_UHP_5_30.wav,test_coda,526409,281,audio-keyboard-response,coda_syllable,NA,B,P,UH,LEFT,
24,condition1,UHB_UHP_5_07,coda-onset,,NA,control,0.0-282.0,75,NA,NA,8,audio/coda_syllables/UHB_UHP_5_07.wav,1,,971,7,audio/coda_syllables/UHB_UHP_5_07.wav,test_coda,528372,282,audio-keyboard-response,coda_syllable,NA,B,P,UH,LEFT,
24,condition1,AHB_AHP_3_04,coda-onset,,NA,control,0.0-283.0,75,NA,NA,14,audio/coda_syllables/AHB_AHP_3_04.wav,2,,907,4,audio/coda_syllables/AHB_AHP_3_04.wav,test_coda,530281,283,audio-keyboard-response,coda_syllable,NA,B,P,AH,LEFT,
24,condition1,UHB_UHP_5_25,coda-onset,,NA,control,0.0-284.0,83,NA,NA,8,audio/coda_syllables/UHB_UHP_5_25.wav,2,,1056,25,audio/coda_syllables/UHB_UHP_5_25.wav,test_coda,532346,284,audio-keyboard-response,coda_syllable,NA,B,P,UH,LEFT,
24,condition1,AHB_AHP_3_07,coda-onset,,NA,control,0.0-285.0,75,NA,NA,14,audio/coda_syllables/AHB_AHP_3_07.wav,2,,1344,7,audio/coda_syllables/AHB_AHP_3_07.wav,test_coda,534690,285,audio-keyboard-response,coda_syllable,NA,B,P,AH,LEFT,
24,condition1,IHB_IHP_5_16,coda-onset,,NA,control,0.0-286.0,75,NA,NA,7,audio/coda_syllables/IHB_IHP_5_16.wav,3,,1195,16,audio/coda_syllables/IHB_IHP_5_16.wav,test_coda,536893,286,audio-keyboard-response,coda_syllable,NA,B,P,IH,LEFT,
24,condition1,AHB_AHP_3_00,coda-onset,,NA,control,0.0-287.0,75,NA,NA,14,audio/coda_syllables/AHB_AHP_3_00.wav,3,,843,0,audio/coda_syllables/AHB_AHP_3_00.wav,test_coda,538733,287,audio-keyboard-response,coda_syllable,NA,B,P,AH,LEFT,
24,condition1,UHB_UHP_5_16,coda-onset,,NA,control,0.0-288.0,75,NA,NA,8,audio/coda_syllables/UHB_UHP_5_16.wav,1,,1003,16,audio/coda_syllables/UHB_UHP_5_16.wav,test_coda,540742,288,audio-keyboard-response,coda_syllable,NA,B,P,UH,LEFT,
24,condition1,IHB_IHP_5_20,coda-onset,,NA,control,0.0-289.0,75,NA,NA,7,audio/coda_syllables/IHB_IHP_5_20.wav,2,,864,20,audio/coda_syllables/IHB_IHP_5_20.wav,test_coda,542602,289,audio-keyboard-response,coda_syllable,NA,B,P,IH,LEFT,
24,condition1,UHB_UHP_5_07,coda-onset,,NA,control,0.0-290.0,75,NA,NA,8,audio/coda_syllables/UHB_UHP_5_07.wav,3,,875,7,audio/coda_syllables/UHB_UHP_5_07.wav,test_coda,544484,290,audio-keyboard-response,coda_syllable,NA,B,P,UH,LEFT,
24,condition1,IHB_IHP_5_04,coda-onset,,NA,control,0.0-291.0,75,NA,NA,7,audio/coda_syllables/IHB_IHP_5_04.wav,1,,736,4,audio/coda_syllables/IHB_IHP_5_04.wav,test_coda,546224,291,audio-keyboard-response,coda_syllable,NA,B,P,IH,LEFT,
24,condition1,IHB_IHP_5_09,coda-onset,,NA,control,0.0-292.0,75,NA,NA,7,audio/coda_syllables/IHB_IHP_5_09.wav,2,,779,9,audio/coda_syllables/IHB_IHP_5_09.wav,test_coda,548006,292,audio-keyboard-response,coda_syllable,NA,B,P,IH,LEFT,
24,condition1,AAB_AAP_1_20,coda-onset,,NA,control,0.0-293.0,83,NA,NA,11,audio/coda_syllables/AAB_AAP_1_20.wav,2,,875,20,audio/coda_syllables/AAB_AAP_1_20.wav,test_coda,549883,293,audio-keyboard-response,coda_syllable,NA,B,P,AA,LEFT,
24,condition1,IHB_IHP_5_11,coda-onset,,NA,control,0.0-294.0,75,NA,NA,7,audio/coda_syllables/IHB_IHP_5_11.wav,2,,843,11,audio/coda_syllables/IHB_IHP_5_11.wav,test_coda,551725,294,audio-keyboard-response,coda_syllable,NA,B,P,IH,LEFT,
24,condition1,IHB_IHP_5_11,coda-onset,,NA,control,0.0-295.0,75,NA,NA,7,audio/coda_syllables/IHB_IHP_5_11.wav,3,,928,11,audio/coda_syllables/IHB_IHP_5_11.wav,test_coda,553658,295,audio-keyboard-response,coda_syllable,NA,B,P,IH,LEFT,
24,condition1,UHB_UHP_5_04,coda-onset,,NA,control,0.0-296.0,75,NA,NA,8,audio/coda_syllables/UHB_UHP_5_04.wav,3,,917,4,audio/coda_syllables/UHB_UHP_5_04.wav,test_coda,555576,296,audio-keyboard-response,coda_syllable,NA,B,P,UH,LEFT,
24,condition1,AAB_AAP_1_04,coda-onset,,NA,control,0.0-297.0,75,NA,NA,11,audio/coda_syllables/AAB_AAP_1_04.wav,1,,896,4,audio/coda_syllables/AAB_AAP_1_04.wav,test_coda,557477,297,audio-keyboard-response,coda_syllable,NA,B,P,AA,LEFT,
24,condition1,AHB_AHP_3_11,coda-onset,,NA,control,0.0-298.0,75,NA,NA,14,audio/coda_syllables/AHB_AHP_3_11.wav,2,,821,11,audio/coda_syllables/AHB_AHP_3_11.wav,test_coda,559301,298,audio-keyboard-response,coda_syllable,NA,B,P,AH,LEFT,
24,condition1,AAB_AAP_1_00,coda-onset,,NA,control,0.0-299.0,75,NA,NA,11,audio/coda_syllables/AAB_AAP_1_00.wav,2,,800,0,audio/coda_syllables/AAB_AAP_1_00.wav,test_coda,561097,299,audio-keyboard-response,coda_syllable,NA,B,P,AA,LEFT,
24,condition1,AAB_AAP_1_07,coda-onset,,NA,control,0.0-300.0,75,NA,NA,11,audio/coda_syllables/AAB_AAP_1_07.wav,3,,800,7,audio/coda_syllables/AAB_AAP_1_07.wav,test_coda,562903,300,audio-keyboard-response,coda_syllable,NA,B,P,AA,LEFT,
24,condition1,AAB_AAP_1_20,coda-onset,,NA,control,0.0-301.0,83,NA,NA,11,audio/coda_syllables/AAB_AAP_1_20.wav,3,,971,20,audio/coda_syllables/AAB_AAP_1_20.wav,test_coda,564877,301,audio-keyboard-response,coda_syllable,NA,B,P,AA,LEFT,
24,condition1,AHB_AHP_3_11,coda-onset,,NA,control,0.0-302.0,75,NA,NA,14,audio/coda_syllables/AHB_AHP_3_11.wav,3,,896,11,audio/coda_syllables/AHB_AHP_3_11.wav,test_coda,566780,302,audio-keyboard-response,coda_syllable,NA,B,P,AH,LEFT,
24,condition1,AAB_AAP_1_09,coda-onset,,NA,control,0.0-303.0,75,NA,NA,11,audio/coda_syllables/AAB_AAP_1_09.wav,1,,992,9,audio/coda_syllables/AAB_AAP_1_09.wav,test_coda,568769,303,audio-keyboard-response,coda_syllable,NA,B,P,AA,LEFT,
24,condition1,AAB_AAP_1_25,coda-onset,,NA,control,0.0-304.0,83,NA,NA,11,audio/coda_syllables/AAB_AAP_1_25.wav,3,,1024,25,audio/coda_syllables/AAB_AAP_1_25.wav,test_coda,570798,304,audio-keyboard-response,coda_syllable,NA,B,P,AA,LEFT,
24,condition1,AAB_AAP_1_30,coda-onset,,NA,control,0.0-305.0,,NA,NA,11,audio/coda_syllables/AAB_AAP_1_30.wav,1,,,30,audio/coda_syllables/AAB_AAP_1_30.wav,test_coda,575800,305,audio-keyboard-response,coda_syllable,NA,B,P,AA,LEFT,
24,condition1,UHB_UHP_5_30,coda-onset,,NA,control,0.0-306.0,83,NA,NA,8,audio/coda_syllables/UHB_UHP_5_30.wav,1,,1227,30,audio/coda_syllables/UHB_UHP_5_30.wav,test_coda,578026,306,audio-keyboard-response,coda_syllable,NA,B,P,UH,LEFT,
24,condition1,AHB_AHP_3_13,coda-onset,,NA,control,0.0-307.0,75,NA,NA,14,audio/coda_syllables/AHB_AHP_3_13.wav,3,,843,13,audio/coda_syllables/AHB_AHP_3_13.wav,test_coda,579881,307,audio-keyboard-response,coda_syllable,NA,B,P,AH,LEFT,
24,condition1,UHB_UHP_5_09,coda-onset,,NA,control,0.0-308.0,75,NA,NA,8,audio/coda_syllables/UHB_UHP_5_09.wav,3,,992,9,audio/coda_syllables/UHB_UHP_5_09.wav,test_coda,581876,308,audio-keyboard-response,coda_syllable,NA,B,P,UH,LEFT,
24,condition1,AHB_AHP_3_16,coda-onset,,NA,control,0.0-309.0,75,NA,NA,14,audio/coda_syllables/AHB_AHP_3_16.wav,3,,1067,16,audio/coda_syllables/AHB_AHP_3_16.wav,test_coda,583951,309,audio-keyboard-response,coda_syllable,NA,B,P,AH,LEFT,
24,condition1,AAB_AAP_1_11,coda-onset,,NA,control,0.0-310.0,75,NA,NA,11,audio/coda_syllables/AAB_AAP_1_11.wav,1,,1205,11,audio/coda_syllables/AAB_AAP_1_11.wav,test_coda,586162,310,audio-keyboard-response,coda_syllable,NA,B,P,AA,LEFT,
24,condition1,AAB_AAP_1_09,coda-onset,,NA,control,0.0-311.0,75,NA,NA,11,audio/coda_syllables/AAB_AAP_1_09.wav,3,,981,9,audio/coda_syllables/AAB_AAP_1_09.wav,test_coda,588139,311,audio-keyboard-response,coda_syllable,NA,B,P,AA,LEFT,
24,condition1,AAB_AAP_1_00,coda-onset,,NA,control,0.0-312.0,75,NA,NA,11,audio/coda_syllables/AAB_AAP_1_00.wav,1,,1088,0,audio/coda_syllables/AAB_AAP_1_00.wav,test_coda,590235,312,audio-keyboard-response,coda_syllable,NA,B,P,AA,LEFT,
24,condition1,UHB_UHP_5_20,coda-onset,,NA,control,0.0-313.0,83,NA,NA,8,audio/coda_syllables/UHB_UHP_5_20.wav,2,,949,20,audio/coda_syllables/UHB_UHP_5_20.wav,test_coda,592186,313,audio-keyboard-response,coda_syllable,NA,B,P,UH,LEFT,
24,condition1,AHB_AHP_3_25,coda-onset,,NA,control,0.0-314.0,75,NA,NA,14,audio/coda_syllables/AHB_AHP_3_25.wav,1,,1173,25,audio/coda_syllables/AHB_AHP_3_25.wav,test_coda,594364,314,audio-keyboard-response,coda_syllable,NA,B,P,AH,LEFT,
24,condition1,IHB_IHP_5_20,coda-onset,,NA,control,0.0-315.0,75,NA,NA,7,audio/coda_syllables/IHB_IHP_5_20.wav,3,,1088,20,audio/coda_syllables/IHB_IHP_5_20.wav,test_coda,596448,315,audio-keyboard-response,coda_syllable,NA,B,P,IH,LEFT,
24,condition1,AHB_AHP_3_00,coda-onset,,NA,control,0.0-316.0,75,NA,NA,14,audio/coda_syllables/AHB_AHP_3_00.wav,2,,949,0,audio/coda_syllables/AHB_AHP_3_00.wav,test_coda,598403,316,audio-keyboard-response,coda_syllable,NA,B,P,AH,LEFT,
24,condition1,IHB_IHP_5_30,coda-onset,,NA,control,0.0-317.0,83,NA,NA,7,audio/coda_syllables/IHB_IHP_5_30.wav,2,,971,30,audio/coda_syllables/IHB_IHP_5_30.wav,test_coda,600372,317,audio-keyboard-response,coda_syllable,NA,B,P,IH,LEFT,
24,condition1,AAB_AAP_1_07,coda-onset,,NA,control,0.0-318.0,75,NA,NA,11,audio/coda_syllables/AAB_AAP_1_07.wav,2,,949,7,audio/coda_syllables/AAB_AAP_1_07.wav,test_coda,602324,318,audio-keyboard-response,coda_syllable,NA,B,P,AA,LEFT,
24,condition1,AAB_AAP_1_04,coda-onset,,NA,control,0.0-319.0,75,NA,NA,11,audio/coda_syllables/AAB_AAP_1_04.wav,2,,1003,4,audio/coda_syllables/AAB_AAP_1_04.wav,test_coda,604332,319,audio-keyboard-response,coda_syllable,NA,B,P,AA,LEFT,
24,condition1,IHB_IHP_5_11,coda-onset,,NA,control,0.0-320.0,75,NA,NA,7,audio/coda_syllables/IHB_IHP_5_11.wav,1,,1099,11,audio/coda_syllables/IHB_IHP_5_11.wav,test_coda,606435,320,audio-keyboard-response,coda_syllable,NA,B,P,IH,LEFT,
24,condition1,IHB_IHP_5_09,coda-onset,,NA,control,0.0-321.0,75,NA,NA,7,audio/coda_syllables/IHB_IHP_5_09.wav,1,,843,9,audio/coda_syllables/IHB_IHP_5_09.wav,test_coda,608280,321,audio-keyboard-response,coda_syllable,NA,B,P,IH,LEFT,
24,condition1,AAB_AAP_1_13,coda-onset,,NA,control,0.0-322.0,83,NA,NA,11,audio/coda_syllables/AAB_AAP_1_13.wav,3,,1483,13,audio/coda_syllables/AAB_AAP_1_13.wav,test_coda,610762,322,audio-keyboard-response,coda_syllable,NA,B,P,AA,LEFT,
24,condition1,AHB_AHP_3_04,coda-onset,,NA,control,0.0-323.0,75,NA,NA,14,audio/coda_syllables/AHB_AHP_3_04.wav,1,,896,4,audio/coda_syllables/AHB_AHP_3_04.wav,test_coda,612661,323,audio-keyboard-response,coda_syllable,NA,B,P,AH,LEFT,
24,condition1,,,,,,0.0-324.0,32,,,,,,,7296.075,,"<div class=""pre-test-container""><p>In the next round, you'll hear single syllables again. You can expect to hear syllables like <em>pa</em> or <em>ba</em>.<br><br>Select the sound that ended the syllable by pressing S or K.<br><br>Press the space bar to continue.</p></div>",,620959,324,html-keyboard-response,,,,,,,
24,condition1,BUH_PUH_3_18,coda-onset,,NA,control,0.0-325.0,83,NA,NA,21,audio/onset_syllables/BUH_PUH_3_18.wav,1,,2400,18,audio/onset_syllables/BUH_PUH_3_18.wav,test_onset,624367,325,audio-keyboard-response,onset_syllable,NA,B,P,UH,LEFT,
24,condition1,BAH_PAH_3_15,coda-onset,,NA,control,0.0-326.0,75,NA,NA,23,audio/onset_syllables/BAH_PAH_3_15.wav,1,,832,15,audio/onset_syllables/BAH_PAH_3_15.wav,test_onset,626195,326,audio-keyboard-response,onset_syllable,NA,B,P,AH,LEFT,
24,condition1,BUH_PUH_3_15,coda-onset,,NA,control,0.0-327.0,75,NA,NA,21,audio/onset_syllables/BUH_PUH_3_15.wav,1,,981,15,audio/onset_syllables/BUH_PUH_3_15.wav,test_onset,628187,327,audio-keyboard-response,onset_syllable,NA,B,P,UH,LEFT,
24,condition1,BIH_PIH_1_30,coda-onset,,NA,control,0.0-328.0,83,NA,NA,16,audio/onset_syllables/BIH_PIH_1_30.wav,3,,1024,30,audio/onset_syllables/BIH_PIH_1_30.wav,test_onset,630210,328,audio-keyboard-response,onset_syllable,NA,B,P,IH,LEFT,
24,condition1,BAA_PAA_3_15,coda-onset,,NA,control,0.0-329.0,75,NA,NA,25,audio/onset_syllables/BAA_PAA_3_15.wav,3,,896,15,audio/onset_syllables/BAA_PAA_3_15.wav,test_onset,632108,329,audio-keyboard-response,onset_syllable,NA,B,P,AA,LEFT,
24,condition1,BAA_PAA_3_22,coda-onset,,NA,control,0.0-330.0,75,NA,NA,25,audio/onset_syllables/BAA_PAA_3_22.wav,3,,821,22,audio/onset_syllables/BAA_PAA_3_22.wav,test_onset,633936,330,audio-keyboard-response,onset_syllable,NA,B,P,AA,LEFT,
24,condition1,BUH_PUH_3_00,coda-onset,,NA,control,0.0-331.0,75,NA,NA,21,audio/onset_syllables/BUH_PUH_3_00.wav,1,,971,0,audio/onset_syllables/BUH_PUH_3_00.wav,test_onset,635910,331,audio-keyboard-response,onset_syllable,NA,B,P,UH,LEFT,
24,condition1,BAA_PAA_3_27,coda-onset,,NA,control,0.0-332.0,75,NA,NA,25,audio/onset_syllables/BAA_PAA_3_27.wav,3,,971,27,audio/onset_syllables/BAA_PAA_3_27.wav,test_onset,637877,332,audio-keyboard-response,onset_syllable,NA,B,P,AA,LEFT,
24,condition1,BAA_PAA_3_27,coda-onset,,NA,control,0.0-333.0,83,NA,NA,25,audio/onset_syllables/BAA_PAA_3_27.wav,2,,811,27,audio/onset_syllables/BAA_PAA_3_27.wav,test_onset,639690,333,audio-keyboard-response,onset_syllable,NA,B,P,AA,LEFT,
24,condition1,BIH_PIH_1_20,coda-onset,,NA,control,0.0-334.0,83,NA,NA,16,audio/onset_syllables/BIH_PIH_1_20.wav,2,,1056,20,audio/onset_syllables/BIH_PIH_1_20.wav,test_onset,641756,334,audio-keyboard-response,onset_syllable,NA,B,P,IH,LEFT,
24,condition1,BUH_PUH_3_24,coda-onset,,NA,control,0.0-335.0,83,NA,NA,21,audio/onset_syllables/BUH_PUH_3_24.wav,3,,885,24,audio/onset_syllables/BUH_PUH_3_24.wav,test_onset,643639,335,audio-keyboard-response,onset_syllable,NA,B,P,UH,LEFT,
24,condition1,BAH_PAH_3_30,coda-onset,,NA,control,0.0-336.0,83,NA,NA,23,audio/onset_syllables/BAH_PAH_3_30.wav,3,,875,30,audio/onset_syllables/BAH_PAH_3_30.wav,test_onset,645517,336,audio-keyboard-response,onset_syllable,NA,B,P,AH,LEFT,
24,condition1,BAH_PAH_3_27,coda-onset,,NA,control,0.0-337.0,83,NA,NA,23,audio/onset_syllables/BAH_PAH_3_27.wav,1,,757,27,audio/onset_syllables/BAH_PAH_3_27.wav,test_onset,647279,337,audio-keyboard-response,onset_syllable,NA,B,P,AH,LEFT,
24,condition1,BAH_PAH_3_30,coda-onset,,NA,control,0.0-338.0,83,NA,NA,23,audio/onset_syllables/BAH_PAH_3_30.wav,1,,757,30,audio/onset_syllables/BAH_PAH_3_30.wav,test_onset,649034,338,audio-keyboard-response,onset_syllable,NA,B,P,AH,LEFT,
24,condition1,BAA_PAA_3_22,coda-onset,,NA,control,0.0-339.0,75,NA,NA,25,audio/onset_syllables/BAA_PAA_3_22.wav,2,,853,22,audio/onset_syllables/BAA_PAA_3_22.wav,test_onset,650897,339,audio-keyboard-response,onset_syllable,NA,B,P,AA,LEFT,
24,condition1,BIH_PIH_1_15,coda-onset,,NA,control,0.0-340.0,75,NA,NA,16,audio/onset_syllables/BIH_PIH_1_15.wav,2,,949,15,audio/onset_syllables/BIH_PIH_1_15.wav,test_onset,652843,340,audio-keyboard-response,onset_syllable,NA,B,P,IH,LEFT,
24,condition1,BAA_PAA_3_24,coda-onset,,NA,control,0.0-341.0,75,NA,NA,25,audio/onset_syllables/BAA_PAA_3_24.wav,1,,832,24,audio/onset_syllables/BAA_PAA_3_24.wav,test_onset,654676,341,audio-keyboard-response,onset_syllable,NA,B,P,AA,LEFT,
24,condition1,BAA_PAA_3_27,coda-onset,,NA,control,0.0-342.0,83,NA,NA,25,audio/onset_syllables/BAA_PAA_3_27.wav,1,,757,27,audio/onset_syllables/BAA_PAA_3_27.wav,test_onset,656438,342,audio-keyboard-response,onset_syllable,NA,B,P,AA,LEFT,
24,condition1,BIH_PIH_1_24,coda-onset,,NA,control,0.0-343.0,75,NA,NA,16,audio/onset_syllables/BIH_PIH_1_24.wav,3,,811,24,audio/onset_syllables/BIH_PIH_1_24.wav,test_onset,658251,343,audio-keyboard-response,onset_syllable,NA,B,P,IH,LEFT,
24,condition1,BAH_PAH_3_24,coda-onset,,NA,control,0.0-344.0,83,NA,NA,23,audio/onset_syllables/BAH_PAH_3_24.wav,3,,917,24,audio/onset_syllables/BAH_PAH_3_24.wav,test_onset,660177,344,audio-keyboard-response,onset_syllable,NA,B,P,AH,LEFT,
24,condition1,BIH_PIH_1_18,coda-onset,,NA,control,0.0-345.0,83,NA,NA,16,audio/onset_syllables/BIH_PIH_1_18.wav,1,,1013,18,audio/onset_syllables/BIH_PIH_1_18.wav,test_onset,662188,345,audio-keyboard-response,onset_syllable,NA,B,P,IH,LEFT,
24,condition1,BAH_PAH_3_27,coda-onset,,NA,control,0.0-346.0,83,NA,NA,23,audio/onset_syllables/BAH_PAH_3_27.wav,3,,800,27,audio/onset_syllables/BAH_PAH_3_27.wav,test_onset,663989,346,audio-keyboard-response,onset_syllable,NA,B,P,AH,LEFT,
24,condition1,BAA_PAA_3_05,coda-onset,,NA,control,0.0-347.0,75,NA,NA,25,audio/onset_syllables/BAA_PAA_3_05.wav,1,,725,5,audio/onset_syllables/BAA_PAA_3_05.wav,test_onset,665724,347,audio-keyboard-response,onset_syllable,NA,B,P,AA,LEFT,
24,condition1,BUH_PUH_3_20,coda-onset,,NA,control,0.0-348.0,83,NA,NA,21,audio/onset_syllables/BUH_PUH_3_20.wav,3,,992,20,audio/onset_syllables/BUH_PUH_3_20.wav,test_onset,667720,348,audio-keyboard-response,onset_syllable,NA,B,P,UH,LEFT,
24,condition1,BAH_PAH_3_10,coda-onset,,NA,control,0.0-349.0,75,NA,NA,23,audio/onset_syllables/BAH_PAH_3_10.wav,2,,1056,10,audio/onset_syllables/BAH_PAH_3_10.wav,test_onset,669782,349,audio-keyboard-response,onset_syllable,NA,B,P,AH,LEFT,
24,condition1,BAA_PAA_3_15,coda-onset,,NA,control,0.0-350.0,75,NA,NA,25,audio/onset_syllables/BAA_PAA_3_15.wav,2,,1056,15,audio/onset_syllables/BAA_PAA_3_15.wav,test_onset,671838,350,audio-keyboard-response,onset_syllable,NA,B,P,AA,LEFT,
24,condition1,BAH_PAH_3_20,coda-onset,,NA,control,0.0-351.0,75,NA,NA,23,audio/onset_syllables/BAH_PAH_3_20.wav,3,,811,20,audio/onset_syllables/BAH_PAH_3_20.wav,test_onset,673651,351,audio-keyboard-response,onset_syllable,NA,B,P,AH,LEFT,
24,condition1,BAA_PAA_3_18,coda-onset,,NA,control,0.0-352.0,75,NA,NA,25,audio/onset_syllables/BAA_PAA_3_18.wav,2,,885,18,audio/onset_syllables/BAA_PAA_3_18.wav,test_onset,675539,352,audio-keyboard-response,onset_syllable,NA,B,P,AA,LEFT,
24,condition1,BAA_PAA_3_30,coda-onset,,NA,control,0.0-353.0,83,NA,NA,25,audio/onset_syllables/BAA_PAA_3_30.wav,1,,832,30,audio/onset_syllables/BAA_PAA_3_30.wav,test_onset,677365,353,audio-keyboard-response,onset_syllable,NA,B,P,AA,LEFT,
24,condition1,BAH_PAH_3_15,coda-onset,,NA,control,0.0-354.0,75,NA,NA,23,audio/onset_syllables/BAH_PAH_3_15.wav,3,,821,15,audio/onset_syllables/BAH_PAH_3_15.wav,test_onset,679190,354,audio-keyboard-response,onset_syllable,NA,B,P,AH,LEFT,
24,condition1,BAH_PAH_3_00,coda-onset,,NA,control,0.0-355.0,75,NA,NA,23,audio/onset_syllables/BAH_PAH_3_00.wav,1,,896,0,audio/onset_syllables/BAH_PAH_3_00.wav,test_onset,681089,355,audio-keyboard-response,onset_syllable,NA,B,P,AH,LEFT,
24,condition1,BAA_PAA_3_24,coda-onset,,NA,control,0.0-356.0,83,NA,NA,25,audio/onset_syllables/BAA_PAA_3_24.wav,2,,757,24,audio/onset_syllables/BAA_PAA_3_24.wav,test_onset,682849,356,audio-keyboard-response,onset_syllable,NA,B,P,AA,LEFT,
24,condition1,BAA_PAA_3_24,coda-onset,,NA,control,0.0-357.0,75,NA,NA,25,audio/onset_syllables/BAA_PAA_3_24.wav,3,,1056,24,audio/onset_syllables/BAA_PAA_3_24.wav,test_onset,684910,357,audio-keyboard-response,onset_syllable,NA,B,P,AA,LEFT,
24,condition1,BIH_PIH_1_05,coda-onset,,NA,control,0.0-358.0,75,NA,NA,16,audio/onset_syllables/BIH_PIH_1_05.wav,2,,907,5,audio/onset_syllables/BIH_PIH_1_05.wav,test_onset,686820,358,audio-keyboard-response,onset_syllable,NA,B,P,IH,LEFT,
24,condition1,BIH_PIH_1_05,coda-onset,,NA,control,0.0-359.0,75,NA,NA,16,audio/onset_syllables/BIH_PIH_1_05.wav,3,,800,5,audio/onset_syllables/BIH_PIH_1_05.wav,test_onset,688624,359,audio-keyboard-response,onset_syllable,NA,B,P,IH,LEFT,
24,condition1,BIH_PIH_1_27,coda-onset,,NA,control,0.0-360.0,83,NA,NA,16,audio/onset_syllables/BIH_PIH_1_27.wav,2,,939,27,audio/onset_syllables/BIH_PIH_1_27.wav,test_onset,690566,360,audio-keyboard-response,onset_syllable,NA,B,P,IH,LEFT,
24,condition1,BAH_PAH_3_05,coda-onset,,NA,control,0.0-361.0,75,NA,NA,23,audio/onset_syllables/BAH_PAH_3_05.wav,3,,992,5,audio/onset_syllables/BAH_PAH_3_05.wav,test_onset,692557,361,audio-keyboard-response,onset_syllable,NA,B,P,AH,LEFT,
24,condition1,BUH_PUH_3_10,coda-onset,,NA,control,0.0-362.0,75,NA,NA,21,audio/onset_syllables/BUH_PUH_3_10.wav,3,,1003,10,audio/onset_syllables/BUH_PUH_3_10.wav,test_onset,694564,362,audio-keyboard-response,onset_syllable,NA,B,P,UH,LEFT,
24,condition1,BAA_PAA_3_15,coda-onset,,NA,control,0.0-363.0,75,NA,NA,25,audio/onset_syllables/BAA_PAA_3_15.wav,1,,1173,15,audio/onset_syllables/BAA_PAA_3_15.wav,test_onset,696735,363,audio-keyboard-response,onset_syllable,NA,B,P,AA,LEFT,
24,condition1,BIH_PIH_1_15,coda-onset,,NA,control,0.0-364.0,75,NA,NA,16,audio/onset_syllables/BIH_PIH_1_15.wav,3,,1056,15,audio/onset_syllables/BIH_PIH_1_15.wav,test_onset,698803,364,audio-keyboard-response,onset_syllable,NA,B,P,IH,LEFT,
24,condition1,BAH_PAH_3_24,coda-onset,,NA,control,0.0-365.0,83,NA,NA,23,audio/onset_syllables/BAH_PAH_3_24.wav,2,,907,24,audio/onset_syllables/BAH_PAH_3_24.wav,test_onset,700711,365,audio-keyboard-response,onset_syllable,NA,B,P,AH,LEFT,
24,condition1,BUH_PUH_3_22,coda-onset,,NA,control,0.0-366.0,83,NA,NA,21,audio/onset_syllables/BUH_PUH_3_22.wav,3,,800,22,audio/onset_syllables/BUH_PUH_3_22.wav,test_onset,702508,366,audio-keyboard-response,onset_syllable,NA,B,P,UH,LEFT,
24,condition1,BAH_PAH_3_05,coda-onset,,NA,control,0.0-367.0,75,NA,NA,23,audio/onset_syllables/BAH_PAH_3_05.wav,1,,1099,5,audio/onset_syllables/BAH_PAH_3_05.wav,test_onset,704616,367,audio-keyboard-response,onset_syllable,NA,B,P,AH,LEFT,
24,condition1,BAA_PAA_3_30,coda-onset,,NA,control,0.0-368.0,83,NA,NA,25,audio/onset_syllables/BAA_PAA_3_30.wav,3,,981,30,audio/onset_syllables/BAA_PAA_3_30.wav,test_onset,706609,368,audio-keyboard-response,onset_syllable,NA,B,P,AA,LEFT,
24,condition1,BAH_PAH_3_10,coda-onset,,NA,control,0.0-369.0,75,NA,NA,23,audio/onset_syllables/BAH_PAH_3_10.wav,1,,971,10,audio/onset_syllables/BAH_PAH_3_10.wav,test_onset,708576,369,audio-keyboard-response,onset_syllable,NA,B,P,AH,LEFT,
24,condition1,BIH_PIH_1_20,coda-onset,,NA,control,0.0-370.0,83,NA,NA,16,audio/onset_syllables/BIH_PIH_1_20.wav,3,,981,20,audio/onset_syllables/BIH_PIH_1_20.wav,test_onset,710566,370,audio-keyboard-response,onset_syllable,NA,B,P,IH,LEFT,
24,condition1,BIH_PIH_1_24,coda-onset,,NA,control,0.0-371.0,83,NA,NA,16,audio/onset_syllables/BIH_PIH_1_24.wav,2,,1387,24,audio/onset_syllables/BIH_PIH_1_24.wav,test_onset,712950,371,audio-keyboard-response,onset_syllable,NA,B,P,IH,LEFT,
24,condition1,BAA_PAA_3_20,coda-onset,,NA,control,0.0-372.0,75,NA,NA,25,audio/onset_syllables/BAA_PAA_3_20.wav,3,,864,20,audio/onset_syllables/BAA_PAA_3_20.wav,test_onset,714816,372,audio-keyboard-response,onset_syllable,NA,B,P,AA,LEFT,
24,condition1,BIH_PIH_1_22,coda-onset,,NA,control,0.0-373.0,75,NA,NA,16,audio/onset_syllables/BIH_PIH_1_22.wav,3,,896,22,audio/onset_syllables/BIH_PIH_1_22.wav,test_onset,716716,373,audio-keyboard-response,onset_syllable,NA,B,P,IH,LEFT,
24,condition1,BAH_PAH_3_27,coda-onset,,NA,control,0.0-374.0,83,NA,NA,23,audio/onset_syllables/BAH_PAH_3_27.wav,2,,864,27,audio/onset_syllables/BAH_PAH_3_27.wav,test_onset,718582,374,audio-keyboard-response,onset_syllable,NA,B,P,AH,LEFT,
24,condition1,BIH_PIH_1_18,coda-onset,,NA,control,0.0-375.0,75,NA,NA,16,audio/onset_syllables/BIH_PIH_1_18.wav,2,,992,18,audio/onset_syllables/BIH_PIH_1_18.wav,test_onset,720581,375,audio-keyboard-response,onset_syllable,NA,B,P,IH,LEFT,
24,condition1,BIH_PIH_1_05,coda-onset,,NA,control,0.0-376.0,75,NA,NA,16,audio/onset_syllables/BIH_PIH_1_05.wav,1,,960,5,audio/onset_syllables/BIH_PIH_1_05.wav,test_onset,722541,376,audio-keyboard-response,onset_syllable,NA,B,P,IH,LEFT,
24,condition1,BIH_PIH_1_27,coda-onset,,NA,control,0.0-377.0,83,NA,NA,16,audio/onset_syllables/BIH_PIH_1_27.wav,3,,949,27,audio/onset_syllables/BIH_PIH_1_27.wav,test_onset,724499,377,audio-keyboard-response,onset_syllable,NA,B,P,IH,LEFT,
