"","workerid","audio","block_order","correct_response","group","key_press","normed_midpoint","repetition","rt","step","test_part","time_elapsed","trial_index","type","visual_target","vowel","yes_side","response_01","step_dist","side_length","norm_step","c_step","accurate","accuracy_exposure","accuracy_test"
"1",24,"UHB_UHP_5_00","coda-onset",NA,"control",75,8,2,2091,0,"test_coda",370648,204,"coda_syllable",NA,"UH","LEFT",0,-8,8,-1,-14.567153416261,NA,0.99,0.957446808510638
"2",24,"AAB_AAP_1_16","coda-onset",NA,"control",83,11,3,1835,16,"test_coda",373486,205,"coda_syllable",NA,"AA","LEFT",1,5,19,0.263157894736842,1.43284658373896,NA,0.99,0.957446808510638
"3",24,"IHB_IHP_5_07","coda-onset",NA,"control",75,7,1,1067,7,"test_coda",375551,206,"coda_syllable",NA,"IH","LEFT",0,0,7,0,-7.56715341626104,NA,0.99,0.957446808510638
"4",24,"AAB_AAP_1_09","coda-onset",NA,"control",83,11,2,1792,9,"test_coda",378349,207,"coda_syllable",NA,"AA","LEFT",1,-2,11,-0.181818181818182,-5.56715341626104,NA,0.99,0.957446808510638
"5",24,"AHB_AHP_3_16","coda-onset",NA,"control",75,14,2,1056,16,"test_coda",380405,208,"coda_syllable",NA,"AH","LEFT",0,2,16,0.125,1.43284658373896,NA,0.99,0.957446808510638
"6",24,"UHB_UHP_5_13","coda-onset",NA,"control",75,8,3,1483,13,"test_coda",382895,209,"coda_syllable",NA,"UH","LEFT",0,5,22,0.227272727272727,-1.56715341626104,NA,0.99,0.957446808510638
"7",24,"AAB_AAP_1_13","coda-onset",NA,"control",75,11,2,1163,13,"test_coda",385055,210,"coda_syllable",NA,"AA","LEFT",0,2,19,0.105263157894737,-1.56715341626104,NA,0.99,0.957446808510638
"8",24,"AAB_AAP_1_13","coda-onset",NA,"control",75,11,1,960,13,"test_coda",387017,211,"coda_syllable",NA,"AA","LEFT",0,2,19,0.105263157894737,-1.56715341626104,NA,0.99,0.957446808510638
"9",24,"AAB_AAP_1_16","coda-onset",NA,"control",75,11,1,1088,16,"test_coda",389116,212,"coda_syllable",NA,"AA","LEFT",0,5,19,0.263157894736842,1.43284658373896,NA,0.99,0.957446808510638
"10",24,"AHB_AHP_3_07","coda-onset",NA,"control",75,14,3,992,7,"test_coda",391109,213,"coda_syllable",NA,"AH","LEFT",0,-7,14,-0.5,-7.56715341626104,NA,0.99,0.957446808510638
"11",24,"IHB_IHP_5_30","coda-onset",NA,"control",83,7,3,1397,30,"test_coda",393507,214,"coda_syllable",NA,"IH","LEFT",1,23,23,1,15.432846583739,NA,0.99,0.957446808510638
"12",24,"AHB_AHP_3_30","coda-onset",NA,"control",83,14,3,1451,30,"test_coda",395956,215,"coda_syllable",NA,"AH","LEFT",1,16,16,1,15.432846583739,NA,0.99,0.957446808510638
"13",24,"AHB_AHP_3_09","coda-onset",NA,"control",75,14,3,949,9,"test_coda",397907,216,"coda_syllable",NA,"AH","LEFT",0,-5,14,-0.357142857142857,-5.56715341626104,NA,0.99,0.957446808510638
"14",24,"IHB_IHP_5_16","coda-onset",NA,"control",75,7,2,1035,16,"test_coda",399948,217,"coda_syllable",NA,"IH","LEFT",0,9,23,0.391304347826087,1.43284658373896,NA,0.99,0.957446808510638
"15",24,"UHB_UHP_5_07","coda-onset",NA,"control",75,8,2,1205,7,"test_coda",402163,218,"coda_syllable",NA,"UH","LEFT",0,-1,8,-0.125,-7.56715341626104,NA,0.99,0.957446808510638
"16",24,"IHB_IHP_5_00","coda-onset",NA,"control",75,7,3,917,0,"test_coda",404077,219,"coda_syllable",NA,"IH","LEFT",0,-7,7,-1,-14.567153416261,NA,0.99,0.957446808510638
"17",24,"IHB_IHP_5_07","coda-onset",NA,"control",75,7,3,1056,7,"test_coda",406136,220,"coda_syllable",NA,"IH","LEFT",0,0,7,0,-7.56715341626104,NA,0.99,0.957446808510638
"18",24,"AHB_AHP_3_13","coda-onset",NA,"control",75,14,2,992,13,"test_coda",408133,221,"coda_syllable",NA,"AH","LEFT",0,-1,14,-0.0714285714285714,-1.56715341626104,NA,0.99,0.957446808510638
"19",24,"UHB_UHP_5_09","coda-onset",NA,"control",75,8,2,981,9,"test_coda",410119,222,"coda_syllable",NA,"UH","LEFT",0,1,22,0.0454545454545455,-5.56715341626104,NA,0.99,0.957446808510638
"20",24,"UHB_UHP_5_25","coda-onset",NA,"control",83,8,1,939,25,"test_coda",412059,223,"coda_syllable",NA,"UH","LEFT",1,17,22,0.772727272727273,10.432846583739,NA,0.99,0.957446808510638
"21",24,"AAB_AAP_1_07","coda-onset",NA,"control",75,11,1,875,7,"test_coda",413930,224,"coda_syllable",NA,"AA","LEFT",0,-4,11,-0.363636363636364,-7.56715341626104,NA,0.99,0.957446808510638
"22",24,"AHB_AHP_3_13","coda-onset",NA,"control",75,14,1,885,13,"test_coda",415824,225,"coda_syllable",NA,"AH","LEFT",0,-1,14,-0.0714285714285714,-1.56715341626104,NA,0.99,0.957446808510638
"23",24,"IHB_IHP_5_04","coda-onset",NA,"control",75,7,3,832,4,"test_coda",417662,226,"coda_syllable",NA,"IH","LEFT",0,-3,7,-0.428571428571429,-10.567153416261,NA,0.99,0.957446808510638
"24",24,"UHB_UHP_5_20","coda-onset",NA,"control",83,8,1,843,20,"test_coda",419507,227,"coda_syllable",NA,"UH","LEFT",1,12,22,0.545454545454545,5.43284658373896,NA,0.99,0.957446808510638
"25",24,"UHB_UHP_5_13","coda-onset",NA,"control",83,8,2,864,13,"test_coda",421375,228,"coda_syllable",NA,"UH","LEFT",1,5,22,0.227272727272727,-1.56715341626104,NA,0.99,0.957446808510638
"26",24,"IHB_IHP_5_07","coda-onset",NA,"control",75,7,2,1088,7,"test_coda",423474,229,"coda_syllable",NA,"IH","LEFT",0,0,7,0,-7.56715341626104,NA,0.99,0.957446808510638
"27",24,"UHB_UHP_5_16","coda-onset",NA,"control",75,8,3,1248,16,"test_coda",425715,230,"coda_syllable",NA,"UH","LEFT",0,8,22,0.363636363636364,1.43284658373896,NA,0.99,0.957446808510638
"28",24,"IHB_IHP_5_13","coda-onset",NA,"control",75,7,3,864,13,"test_coda",427577,231,"coda_syllable",NA,"IH","LEFT",0,6,23,0.260869565217391,-1.56715341626104,NA,0.99,0.957446808510638
"29",24,"UHB_UHP_5_09","coda-onset",NA,"control",75,8,1,832,9,"test_coda",429414,232,"coda_syllable",NA,"UH","LEFT",0,1,22,0.0454545454545455,-5.56715341626104,NA,0.99,0.957446808510638
"30",24,"UHB_UHP_5_13","coda-onset",NA,"control",75,8,1,875,13,"test_coda",431293,233,"coda_syllable",NA,"UH","LEFT",0,5,22,0.227272727272727,-1.56715341626104,NA,0.99,0.957446808510638
"31",24,"AHB_AHP_3_07","coda-onset",NA,"control",75,14,1,800,7,"test_coda",433092,234,"coda_syllable",NA,"AH","LEFT",0,-7,14,-0.5,-7.56715341626104,NA,0.99,0.957446808510638
"32",24,"AAB_AAP_1_30","coda-onset",NA,"control",83,11,2,896,30,"test_coda",434990,235,"coda_syllable",NA,"AA","LEFT",1,19,19,1,15.432846583739,NA,0.99,0.957446808510638
"33",24,"AAB_AAP_1_04","coda-onset",NA,"control",75,11,3,960,4,"test_coda",436953,236,"coda_syllable",NA,"AA","LEFT",0,-7,11,-0.636363636363636,-10.567153416261,NA,0.99,0.957446808510638
"34",24,"UHB_UHP_5_30","coda-onset",NA,"control",83,8,3,885,30,"test_coda",438842,237,"coda_syllable",NA,"UH","LEFT",1,22,22,1,15.432846583739,NA,0.99,0.957446808510638
"35",24,"IHB_IHP_5_00","coda-onset",NA,"control",75,7,2,853,0,"test_coda",440702,238,"coda_syllable",NA,"IH","LEFT",0,-7,7,-1,-14.567153416261,NA,0.99,0.957446808510638
"36",24,"AAB_AAP_1_11","coda-onset",NA,"control",75,11,2,1088,11,"test_coda",442792,239,"coda_syllable",NA,"AA","LEFT",0,0,11,0,-3.56715341626104,NA,0.99,0.957446808510638
"37",24,"AHB_AHP_3_20","coda-onset",NA,"control",75,14,1,885,20,"test_coda",444689,240,"coda_syllable",NA,"AH","LEFT",0,6,16,0.375,5.43284658373896,NA,0.99,0.957446808510638
"38",24,"UHB_UHP_5_04","coda-onset",NA,"control",75,8,2,864,4,"test_coda",446553,241,"coda_syllable",NA,"UH","LEFT",0,-4,8,-0.5,-10.567153416261,NA,0.99,0.957446808510638
"39",24,"IHB_IHP_5_04","coda-onset",NA,"control",75,7,2,821,4,"test_coda",448373,242,"coda_syllable",NA,"IH","LEFT",0,-3,7,-0.428571428571429,-10.567153416261,NA,0.99,0.957446808510638
"40",24,"AHB_AHP_3_25","coda-onset",NA,"control",75,14,3,821,25,"test_coda",450205,243,"coda_syllable",NA,"AH","LEFT",0,11,16,0.6875,10.432846583739,NA,0.99,0.957446808510638
"41",24,"IHB_IHP_5_13","coda-onset",NA,"control",75,7,1,875,13,"test_coda",452074,244,"coda_syllable",NA,"IH","LEFT",0,6,23,0.260869565217391,-1.56715341626104,NA,0.99,0.957446808510638
"42",24,"AHB_AHP_3_20","coda-onset",NA,"control",75,14,3,811,20,"test_coda",453890,245,"coda_syllable",NA,"AH","LEFT",0,6,16,0.375,5.43284658373896,NA,0.99,0.957446808510638
"43",24,"UHB_UHP_5_25","coda-onset",NA,"control",83,8,3,971,25,"test_coda",455865,246,"coda_syllable",NA,"UH","LEFT",1,17,22,0.772727272727273,10.432846583739,NA,0.99,0.957446808510638
"44",24,"IHB_IHP_5_00","coda-onset",NA,"control",75,7,1,907,0,"test_coda",457770,247,"coda_syllable",NA,"IH","LEFT",0,-7,7,-1,-14.567153416261,NA,0.99,0.957446808510638
"45",24,"IHB_IHP_5_09","coda-onset",NA,"control",75,7,3,821,9,"test_coda",459597,248,"coda_syllable",NA,"IH","LEFT",0,2,23,0.0869565217391304,-5.56715341626104,NA,0.99,0.957446808510638
"46",24,"AHB_AHP_3_09","coda-onset",NA,"control",75,14,2,949,9,"test_coda",461547,249,"coda_syllable",NA,"AH","LEFT",0,-5,14,-0.357142857142857,-5.56715341626104,NA,0.99,0.957446808510638
"47",24,"AAB_AAP_1_25","coda-onset",NA,"control",83,11,1,907,25,"test_coda",463457,250,"coda_syllable",NA,"AA","LEFT",1,14,19,0.736842105263158,10.432846583739,NA,0.99,0.957446808510638
"48",24,"AHB_AHP_3_16","coda-onset",NA,"control",75,14,1,1077,16,"test_coda",465541,251,"coda_syllable",NA,"AH","LEFT",0,2,16,0.125,1.43284658373896,NA,0.99,0.957446808510638
"49",24,"IHB_IHP_5_25","coda-onset",NA,"control",75,7,1,949,25,"test_coda",467496,252,"coda_syllable",NA,"IH","LEFT",0,18,23,0.782608695652174,10.432846583739,NA,0.99,0.957446808510638
"50",24,"IHB_IHP_5_16","coda-onset",NA,"control",83,7,1,981,16,"test_coda",469472,253,"coda_syllable",NA,"IH","LEFT",1,9,23,0.391304347826087,1.43284658373896,NA,0.99,0.957446808510638
"51",24,"AHB_AHP_3_11","coda-onset",NA,"control",75,14,1,928,11,"test_coda",471406,254,"coda_syllable",NA,"AH","LEFT",0,-3,14,-0.214285714285714,-3.56715341626104,NA,0.99,0.957446808510638
"52",24,"AAB_AAP_1_11","coda-onset",NA,"control",75,11,3,1227,11,"test_coda",473638,255,"coda_syllable",NA,"AA","LEFT",0,0,11,0,-3.56715341626104,NA,0.99,0.957446808510638
"53",24,"AAB_AAP_1_25","coda-onset",NA,"control",83,11,2,960,25,"test_coda",475601,256,"coda_syllable",NA,"AA","LEFT",1,14,19,0.736842105263158,10.432846583739,NA,0.99,0.957446808510638
"54",24,"AHB_AHP_3_30","coda-onset",NA,"control",83,14,1,949,30,"test_coda",477545,257,"coda_syllable",NA,"AH","LEFT",1,16,16,1,15.432846583739,NA,0.99,0.957446808510638
"55",24,"AAB_AAP_1_20","coda-onset",NA,"control",83,11,1,896,20,"test_coda",479444,258,"coda_syllable",NA,"AA","LEFT",1,9,19,0.473684210526316,5.43284658373896,NA,0.99,0.957446808510638
"56",24,"UHB_UHP_5_20","coda-onset",NA,"control",83,8,3,832,20,"test_coda",481283,259,"coda_syllable",NA,"UH","LEFT",1,12,22,0.545454545454545,5.43284658373896,NA,0.99,0.957446808510638
"57",24,"UHB_UHP_5_11","coda-onset",NA,"control",75,8,2,1291,11,"test_coda",483577,260,"coda_syllable",NA,"UH","LEFT",0,3,22,0.136363636363636,-3.56715341626104,NA,0.99,0.957446808510638
"58",24,"AHB_AHP_3_09","coda-onset",NA,"control",75,14,1,1099,9,"test_coda",485674,261,"coda_syllable",NA,"AH","LEFT",0,-5,14,-0.357142857142857,-5.56715341626104,NA,0.99,0.957446808510638
"59",24,"UHB_UHP_5_11","coda-onset",NA,"control",75,8,3,1035,11,"test_coda",487715,262,"coda_syllable",NA,"UH","LEFT",0,3,22,0.136363636363636,-3.56715341626104,NA,0.99,0.957446808510638
"60",24,"UHB_UHP_5_00","coda-onset",NA,"control",75,8,3,1109,0,"test_coda",489831,263,"coda_syllable",NA,"UH","LEFT",0,-8,8,-1,-14.567153416261,NA,0.99,0.957446808510638
"61",24,"AHB_AHP_3_04","coda-onset",NA,"control",75,14,3,885,4,"test_coda",491713,264,"coda_syllable",NA,"AH","LEFT",0,-10,14,-0.714285714285714,-10.567153416261,NA,0.99,0.957446808510638
"62",24,"IHB_IHP_5_30","coda-onset",NA,"control",83,7,1,1163,30,"test_coda",493879,265,"coda_syllable",NA,"IH","LEFT",1,23,23,1,15.432846583739,NA,0.99,0.957446808510638
"63",24,"UHB_UHP_5_16","coda-onset",NA,"control",83,8,2,1291,16,"test_coda",496170,266,"coda_syllable",NA,"UH","LEFT",1,8,22,0.363636363636364,1.43284658373896,NA,0.99,0.957446808510638
"64",24,"UHB_UHP_5_11","coda-onset",NA,"control",75,8,1,1003,11,"test_coda",498181,267,"coda_syllable",NA,"UH","LEFT",0,3,22,0.136363636363636,-3.56715341626104,NA,0.99,0.957446808510638
"65",24,"IHB_IHP_5_25","coda-onset",NA,"control",83,7,3,1056,25,"test_coda",500239,268,"coda_syllable",NA,"IH","LEFT",1,18,23,0.782608695652174,10.432846583739,NA,0.99,0.957446808510638
"66",24,"AAB_AAP_1_30","coda-onset",NA,"control",83,11,3,949,30,"test_coda",502189,269,"coda_syllable",NA,"AA","LEFT",1,19,19,1,15.432846583739,NA,0.99,0.957446808510638
"67",24,"IHB_IHP_5_20","coda-onset",NA,"control",83,7,1,1077,20,"test_coda",504265,270,"coda_syllable",NA,"IH","LEFT",1,13,23,0.565217391304348,5.43284658373896,NA,0.99,0.957446808510638
"68",24,"AHB_AHP_3_00","coda-onset",NA,"control",75,14,1,853,0,"test_coda",506124,271,"coda_syllable",NA,"AH","LEFT",0,-14,14,-1,-14.567153416261,NA,0.99,0.957446808510638
"69",24,"AAB_AAP_1_16","coda-onset",NA,"control",83,11,2,1003,16,"test_coda",508128,272,"coda_syllable",NA,"AA","LEFT",1,5,19,0.263157894736842,1.43284658373896,NA,0.99,0.957446808510638
"70",24,"AHB_AHP_3_30","coda-onset",NA,"control",83,14,2,981,30,"test_coda",510115,273,"coda_syllable",NA,"AH","LEFT",1,16,16,1,15.432846583739,NA,0.99,0.957446808510638
"71",24,"AHB_AHP_3_25","coda-onset",NA,"control",83,14,2,875,25,"test_coda",511994,274,"coda_syllable",NA,"AH","LEFT",1,11,16,0.6875,10.432846583739,NA,0.99,0.957446808510638
"72",24,"IHB_IHP_5_13","coda-onset",NA,"control",75,7,2,1035,13,"test_coda",514034,275,"coda_syllable",NA,"IH","LEFT",0,6,23,0.260869565217391,-1.56715341626104,NA,0.99,0.957446808510638
"73",24,"AAB_AAP_1_00","coda-onset",NA,"control",83,11,3,1088,0,"test_coda",516116,276,"coda_syllable",NA,"AA","LEFT",1,-11,11,-1,-14.567153416261,NA,0.99,0.957446808510638
"74",24,"AHB_AHP_3_20","coda-onset",NA,"control",83,14,2,1195,20,"test_coda",518321,277,"coda_syllable",NA,"AH","LEFT",1,6,16,0.375,5.43284658373896,NA,0.99,0.957446808510638
"75",24,"UHB_UHP_5_04","coda-onset",NA,"control",75,8,1,1205,4,"test_coda",520523,278,"coda_syllable",NA,"UH","LEFT",0,-4,8,-0.5,-10.567153416261,NA,0.99,0.957446808510638
"76",24,"UHB_UHP_5_00","coda-onset",NA,"control",75,8,1,939,0,"test_coda",522465,279,"coda_syllable",NA,"UH","LEFT",0,-8,8,-1,-14.567153416261,NA,0.99,0.957446808510638
"77",24,"IHB_IHP_5_25","coda-onset",NA,"control",75,7,2,917,25,"test_coda",524390,280,"coda_syllable",NA,"IH","LEFT",0,18,23,0.782608695652174,10.432846583739,NA,0.99,0.957446808510638
"78",24,"UHB_UHP_5_30","coda-onset",NA,"control",83,8,2,1013,30,"test_coda",526409,281,"coda_syllable",NA,"UH","LEFT",1,22,22,1,15.432846583739,NA,0.99,0.957446808510638
"79",24,"UHB_UHP_5_07","coda-onset",NA,"control",75,8,1,971,7,"test_coda",528372,282,"coda_syllable",NA,"UH","LEFT",0,-1,8,-0.125,-7.56715341626104,NA,0.99,0.957446808510638
"80",24,"AHB_AHP_3_04","coda-onset",NA,"control",75,14,2,907,4,"test_coda",530281,283,"coda_syllable",NA,"AH","LEFT",0,-10,14,-0.714285714285714,-10.567153416261,NA,0.99,0.957446808510638
"81",24,"UHB_UHP_5_25","coda-onset",NA,"control",83,8,2,1056,25,"test_coda",532346,284,"coda_syllable",NA,"UH","LEFT",1,17,22,0.772727272727273,10.432846583739,NA,0.99,0.957446808510638
"82",24,"AHB_AHP_3_07","coda-onset",NA,"control",75,14,2,1344,7,"test_coda",534690,285,"coda_syllable",NA,"AH","LEFT",0,-7,14,-0.5,-7.56715341626104,NA,0.99,0.957446808510638
"83",24,"IHB_IHP_5_16","coda-onset",NA,"control",75,7,3,1195,16,"test_coda",536893,286,"coda_syllable",NA,"IH","LEFT",0,9,23,0.391304347826087,1.43284658373896,NA,0.99,0.957446808510638
"84",24,"AHB_AHP_3_00","coda-onset",NA,"control",75,14,3,843,0,"test_coda",538733,287,"coda_syllable",NA,"AH","LEFT",0,-14,14,-1,-14.567153416261,NA,0.99,0.957446808510638
"85",24,"UHB_UHP_5_16","coda-onset",NA,"control",75,8,1,1003,16,"test_coda",540742,288,"coda_syllable",NA,"UH","LEFT",0,8,22,0.363636363636364,1.43284658373896,NA,0.99,0.957446808510638
"86",24,"IHB_IHP_5_20","coda-onset",NA,"control",75,7,2,864,20,"test_coda",542602,289,"coda_syllable",NA,"IH","LEFT",0,13,23,0.565217391304348,5.43284658373896,NA,0.99,0.957446808510638
"87",24,"UHB_UHP_5_07","coda-onset",NA,"control",75,8,3,875,7,"test_coda",544484,290,"coda_syllable",NA,"UH","LEFT",0,-1,8,-0.125,-7.56715341626104,NA,0.99,0.957446808510638
"88",24,"IHB_IHP_5_04","coda-onset",NA,"control",75,7,1,736,4,"test_coda",546224,291,"coda_syllable",NA,"IH","LEFT",0,-3,7,-0.428571428571429,-10.567153416261,NA,0.99,0.957446808510638
"89",24,"IHB_IHP_5_09","coda-onset",NA,"control",75,7,2,779,9,"test_coda",548006,292,"coda_syllable",NA,"IH","LEFT",0,2,23,0.0869565217391304,-5.56715341626104,NA,0.99,0.957446808510638
"90",24,"AAB_AAP_1_20","coda-onset",NA,"control",83,11,2,875,20,"test_coda",549883,293,"coda_syllable",NA,"AA","LEFT",1,9,19,0.473684210526316,5.43284658373896,NA,0.99,0.957446808510638
"91",24,"IHB_IHP_5_11","coda-onset",NA,"control",75,7,2,843,11,"test_coda",551725,294,"coda_syllable",NA,"IH","LEFT",0,4,23,0.173913043478261,-3.56715341626104,NA,0.99,0.957446808510638
"92",24,"IHB_IHP_5_11","coda-onset",NA,"control",75,7,3,928,11,"test_coda",553658,295,"coda_syllable",NA,"IH","LEFT",0,4,23,0.173913043478261,-3.56715341626104,NA,0.99,0.957446808510638
"93",24,"UHB_UHP_5_04","coda-onset",NA,"control",75,8,3,917,4,"test_coda",555576,296,"coda_syllable",NA,"UH","LEFT",0,-4,8,-0.5,-10.567153416261,NA,0.99,0.957446808510638
"94",24,"AAB_AAP_1_04","coda-onset",NA,"control",75,11,1,896,4,"test_coda",557477,297,"coda_syllable",NA,"AA","LEFT",0,-7,11,-0.636363636363636,-10.567153416261,NA,0.99,0.957446808510638
"95",24,"AHB_AHP_3_11","coda-onset",NA,"control",75,14,2,821,11,"test_coda",559301,298,"coda_syllable",NA,"AH","LEFT",0,-3,14,-0.214285714285714,-3.56715341626104,NA,0.99,0.957446808510638
"96",24,"AAB_AAP_1_00","coda-onset",NA,"control",75,11,2,800,0,"test_coda",561097,299,"coda_syllable",NA,"AA","LEFT",0,-11,11,-1,-14.567153416261,NA,0.99,0.957446808510638
"97",24,"AAB_AAP_1_07","coda-onset",NA,"control",75,11,3,800,7,"test_coda",562903,300,"coda_syllable",NA,"AA","LEFT",0,-4,11,-0.363636363636364,-7.56715341626104,NA,0.99,0.957446808510638
"98",24,"AAB_AAP_1_20","coda-onset",NA,"control",83,11,3,971,20,"test_coda",564877,301,"coda_syllable",NA,"AA","LEFT",1,9,19,0.473684210526316,5.43284658373896,NA,0.99,0.957446808510638
"99",24,"AHB_AHP_3_11","coda-onset",NA,"control",75,14,3,896,11,"test_coda",566780,302,"coda_syllable",NA,"AH","LEFT",0,-3,14,-0.214285714285714,-3.56715341626104,NA,0.99,0.957446808510638
"100",24,"AAB_AAP_1_09","coda-onset",NA,"control",75,11,1,992,9,"test_coda",568769,303,"coda_syllable",NA,"AA","LEFT",0,-2,11,-0.181818181818182,-5.56715341626104,NA,0.99,0.957446808510638
"101",24,"AAB_AAP_1_25","coda-onset",NA,"control",83,11,3,1024,25,"test_coda",570798,304,"coda_syllable",NA,"AA","LEFT",1,14,19,0.736842105263158,10.432846583739,NA,0.99,0.957446808510638
"102",24,"UHB_UHP_5_30","coda-onset",NA,"control",83,8,1,1227,30,"test_coda",578026,306,"coda_syllable",NA,"UH","LEFT",1,22,22,1,15.432846583739,NA,0.99,0.957446808510638
"103",24,"AHB_AHP_3_13","coda-onset",NA,"control",75,14,3,843,13,"test_coda",579881,307,"coda_syllable",NA,"AH","LEFT",0,-1,14,-0.0714285714285714,-1.56715341626104,NA,0.99,0.957446808510638
"104",24,"UHB_UHP_5_09","coda-onset",NA,"control",75,8,3,992,9,"test_coda",581876,308,"coda_syllable",NA,"UH","LEFT",0,1,22,0.0454545454545455,-5.56715341626104,NA,0.99,0.957446808510638
"105",24,"AHB_AHP_3_16","coda-onset",NA,"control",75,14,3,1067,16,"test_coda",583951,309,"coda_syllable",NA,"AH","LEFT",0,2,16,0.125,1.43284658373896,NA,0.99,0.957446808510638
"106",24,"AAB_AAP_1_11","coda-onset",NA,"control",75,11,1,1205,11,"test_coda",586162,310,"coda_syllable",NA,"AA","LEFT",0,0,11,0,-3.56715341626104,NA,0.99,0.957446808510638
"107",24,"AAB_AAP_1_09","coda-onset",NA,"control",75,11,3,981,9,"test_coda",588139,311,"coda_syllable",NA,"AA","LEFT",0,-2,11,-0.181818181818182,-5.56715341626104,NA,0.99,0.957446808510638
"108",24,"AAB_AAP_1_00","coda-onset",NA,"control",75,11,1,1088,0,"test_coda",590235,312,"coda_syllable",NA,"AA","LEFT",0,-11,11,-1,-14.567153416261,NA,0.99,0.957446808510638
"109",24,"UHB_UHP_5_20","coda-onset",NA,"control",83,8,2,949,20,"test_coda",592186,313,"coda_syllable",NA,"UH","LEFT",1,12,22,0.545454545454545,5.43284658373896,NA,0.99,0.957446808510638
"110",24,"AHB_AHP_3_25","coda-onset",NA,"control",75,14,1,1173,25,"test_coda",594364,314,"coda_syllable",NA,"AH","LEFT",0,11,16,0.6875,10.432846583739,NA,0.99,0.957446808510638
"111",24,"IHB_IHP_5_20","coda-onset",NA,"control",75,7,3,1088,20,"test_coda",596448,315,"coda_syllable",NA,"IH","LEFT",0,13,23,0.565217391304348,5.43284658373896,NA,0.99,0.957446808510638
"112",24,"AHB_AHP_3_00","coda-onset",NA,"control",75,14,2,949,0,"test_coda",598403,316,"coda_syllable",NA,"AH","LEFT",0,-14,14,-1,-14.567153416261,NA,0.99,0.957446808510638
"113",24,"IHB_IHP_5_30","coda-onset",NA,"control",83,7,2,971,30,"test_coda",600372,317,"coda_syllable",NA,"IH","LEFT",1,23,23,1,15.432846583739,NA,0.99,0.957446808510638
"114",24,"AAB_AAP_1_07","coda-onset",NA,"control",75,11,2,949,7,"test_coda",602324,318,"coda_syllable",NA,"AA","LEFT",0,-4,11,-0.363636363636364,-7.56715341626104,NA,0.99,0.957446808510638
"115",24,"AAB_AAP_1_04","coda-onset",NA,"control",75,11,2,1003,4,"test_coda",604332,319,"coda_syllable",NA,"AA","LEFT",0,-7,11,-0.636363636363636,-10.567153416261,NA,0.99,0.957446808510638
"116",24,"IHB_IHP_5_11","coda-onset",NA,"control",75,7,1,1099,11,"test_coda",606435,320,"coda_syllable",NA,"IH","LEFT",0,4,23,0.173913043478261,-3.56715341626104,NA,0.99,0.957446808510638
"117",24,"IHB_IHP_5_09","coda-onset",NA,"control",75,7,1,843,9,"test_coda",608280,321,"coda_syllable",NA,"IH","LEFT",0,2,23,0.0869565217391304,-5.56715341626104,NA,0.99,0.957446808510638
"118",24,"AAB_AAP_1_13","coda-onset",NA,"control",83,11,3,1483,13,"test_coda",610762,322,"coda_syllable",NA,"AA","LEFT",1,2,19,0.105263157894737,-1.56715341626104,NA,0.99,0.957446808510638
"119",24,"AHB_AHP_3_04","coda-onset",NA,"control",75,14,1,896,4,"test_coda",612661,323,"coda_syllable",NA,"AH","LEFT",0,-10,14,-0.714285714285714,-10.567153416261,NA,0.99,0.957446808510638
"120",24,"BUH_PUH_3_18","coda-onset",NA,"control",83,21,1,2400,18,"test_onset",624367,325,"onset_syllable",NA,"UH","LEFT",1,-3,21,-0.142857142857143,3.43284658373896,NA,0.99,0.957446808510638
"121",24,"BAH_PAH_3_15","coda-onset",NA,"control",75,23,1,832,15,"test_onset",626195,326,"onset_syllable",NA,"AH","LEFT",0,-8,23,-0.347826086956522,0.432846583738957,NA,0.99,0.957446808510638
"122",24,"BUH_PUH_3_15","coda-onset",NA,"control",75,21,1,981,15,"test_onset",628187,327,"onset_syllable",NA,"UH","LEFT",0,-6,21,-0.285714285714286,0.432846583738957,NA,0.99,0.957446808510638
"123",24,"BIH_PIH_1_30","coda-onset",NA,"control",83,16,3,1024,30,"test_onset",630210,328,"onset_syllable",NA,"IH","LEFT",1,14,14,1,15.432846583739,NA,0.99,0.957446808510638
"124",24,"BAA_PAA_3_15","coda-onset",NA,"control",75,25,3,896,15,"test_onset",632108,329,"onset_syllable",NA,"AA","LEFT",0,-10,25,-0.4,0.432846583738957,NA,0.99,0.957446808510638
"125",24,"BAA_PAA_3_22","coda-onset",NA,"control",75,25,3,821,22,"test_onset",633936,330,"onset_syllable",NA,"AA","LEFT",0,-3,25,-0.12,7.43284658373896,NA,0.99,0.957446808510638
"126",24,"BUH_PUH_3_00","coda-onset",NA,"control",75,21,1,971,0,"test_onset",635910,331,"onset_syllable",NA,"UH","LEFT",0,-21,21,-1,-14.567153416261,NA,0.99,0.957446808510638
"127",24,"BAA_PAA_3_27","coda-onset",NA,"control",75,25,3,971,27,"test_onset",637877,332,"onset_syllable",NA,"AA","LEFT",0,2,5,0.4,12.432846583739,NA,0.99,0.957446808510638
"128",24,"BAA_PAA_3_27","coda-onset",NA,"control",83,25,2,811,27,"test_onset",639690,333,"onset_syllable",NA,"AA","LEFT",1,2,5,0.4,12.432846583739,NA,0.99,0.957446808510638
"129",24,"BIH_PIH_1_20","coda-onset",NA,"control",83,16,2,1056,20,"test_onset",641756,334,"onset_syllable",NA,"IH","LEFT",1,4,14,0.285714285714286,5.43284658373896,NA,0.99,0.957446808510638
"130",24,"BUH_PUH_3_24","coda-onset",NA,"control",83,21,3,885,24,"test_onset",643639,335,"onset_syllable",NA,"UH","LEFT",1,3,9,0.333333333333333,9.43284658373896,NA,0.99,0.957446808510638
"131",24,"BAH_PAH_3_30","coda-onset",NA,"control",83,23,3,875,30,"test_onset",645517,336,"onset_syllable",NA,"AH","LEFT",1,7,7,1,15.432846583739,NA,0.99,0.957446808510638
"132",24,"BAH_PAH_3_27","coda-onset",NA,"control",83,23,1,757,27,"test_onset",647279,337,"onset_syllable",NA,"AH","LEFT",1,4,7,0.571428571428571,12.432846583739,NA,0.99,0.957446808510638
"133",24,"BAH_PAH_3_30","coda-onset",NA,"control",83,23,1,757,30,"test_onset",649034,338,"onset_syllable",NA,"AH","LEFT",1,7,7,1,15.432846583739,NA,0.99,0.957446808510638
"134",24,"BAA_PAA_3_22","coda-onset",NA,"control",75,25,2,853,22,"test_onset",650897,339,"onset_syllable",NA,"AA","LEFT",0,-3,25,-0.12,7.43284658373896,NA,0.99,0.957446808510638
"135",24,"BIH_PIH_1_15","coda-onset",NA,"control",75,16,2,949,15,"test_onset",652843,340,"onset_syllable",NA,"IH","LEFT",0,-1,16,-0.0625,0.432846583738957,NA,0.99,0.957446808510638
"136",24,"BAA_PAA_3_24","coda-onset",NA,"control",75,25,1,832,24,"test_onset",654676,341,"onset_syllable",NA,"AA","LEFT",0,-1,25,-0.04,9.43284658373896,NA,0.99,0.957446808510638
"137",24,"BAA_PAA_3_27","coda-onset",NA,"control",83,25,1,757,27,"test_onset",656438,342,"onset_syllable",NA,"AA","LEFT",1,2,5,0.4,12.432846583739,NA,0.99,0.957446808510638
"138",24,"BIH_PIH_1_24","coda-onset",NA,"control",75,16,3,811,24,"test_onset",658251,343,"onset_syllable",NA,"IH","LEFT",0,8,14,0.571428571428571,9.43284658373896,NA,0.99,0.957446808510638
"139",24,"BAH_PAH_3_24","coda-onset",NA,"control",83,23,3,917,24,"test_onset",660177,344,"onset_syllable",NA,"AH","LEFT",1,1,7,0.142857142857143,9.43284658373896,NA,0.99,0.957446808510638
"140",24,"BIH_PIH_1_18","coda-onset",NA,"control",83,16,1,1013,18,"test_onset",662188,345,"onset_syllable",NA,"IH","LEFT",1,2,14,0.142857142857143,3.43284658373896,NA,0.99,0.957446808510638
"141",24,"BAH_PAH_3_27","coda-onset",NA,"control",83,23,3,800,27,"test_onset",663989,346,"onset_syllable",NA,"AH","LEFT",1,4,7,0.571428571428571,12.432846583739,NA,0.99,0.957446808510638
"142",24,"BAA_PAA_3_05","coda-onset",NA,"control",75,25,1,725,5,"test_onset",665724,347,"onset_syllable",NA,"AA","LEFT",0,-20,25,-0.8,-9.56715341626104,NA,0.99,0.957446808510638
"143",24,"BUH_PUH_3_20","coda-onset",NA,"control",83,21,3,992,20,"test_onset",667720,348,"onset_syllable",NA,"UH","LEFT",1,-1,21,-0.0476190476190476,5.43284658373896,NA,0.99,0.957446808510638
"144",24,"BAH_PAH_3_10","coda-onset",NA,"control",75,23,2,1056,10,"test_onset",669782,349,"onset_syllable",NA,"AH","LEFT",0,-13,23,-0.565217391304348,-4.56715341626104,NA,0.99,0.957446808510638
"145",24,"BAA_PAA_3_15","coda-onset",NA,"control",75,25,2,1056,15,"test_onset",671838,350,"onset_syllable",NA,"AA","LEFT",0,-10,25,-0.4,0.432846583738957,NA,0.99,0.957446808510638
"146",24,"BAH_PAH_3_20","coda-onset",NA,"control",75,23,3,811,20,"test_onset",673651,351,"onset_syllable",NA,"AH","LEFT",0,-3,23,-0.130434782608696,5.43284658373896,NA,0.99,0.957446808510638
"147",24,"BAA_PAA_3_18","coda-onset",NA,"control",75,25,2,885,18,"test_onset",675539,352,"onset_syllable",NA,"AA","LEFT",0,-7,25,-0.28,3.43284658373896,NA,0.99,0.957446808510638
"148",24,"BAA_PAA_3_30","coda-onset",NA,"control",83,25,1,832,30,"test_onset",677365,353,"onset_syllable",NA,"AA","LEFT",1,5,5,1,15.432846583739,NA,0.99,0.957446808510638
"149",24,"BAH_PAH_3_15","coda-onset",NA,"control",75,23,3,821,15,"test_onset",679190,354,"onset_syllable",NA,"AH","LEFT",0,-8,23,-0.347826086956522,0.432846583738957,NA,0.99,0.957446808510638
"150",24,"BAH_PAH_3_00","coda-onset",NA,"control",75,23,1,896,0,"test_onset",681089,355,"onset_syllable",NA,"AH","LEFT",0,-23,23,-1,-14.567153416261,NA,0.99,0.957446808510638
"151",24,"BAA_PAA_3_24","coda-onset",NA,"control",83,25,2,757,24,"test_onset",682849,356,"onset_syllable",NA,"AA","LEFT",1,-1,25,-0.04,9.43284658373896,NA,0.99,0.957446808510638
"152",24,"BAA_PAA_3_24","coda-onset",NA,"control",75,25,3,1056,24,"test_onset",684910,357,"onset_syllable",NA,"AA","LEFT",0,-1,25,-0.04,9.43284658373896,NA,0.99,0.957446808510638
"153",24,"BIH_PIH_1_05","coda-onset",NA,"control",75,16,2,907,5,"test_onset",686820,358,"onset_syllable",NA,"IH","LEFT",0,-11,16,-0.6875,-9.56715341626104,NA,0.99,0.957446808510638
"154",24,"BIH_PIH_1_05","coda-onset",NA,"control",75,16,3,800,5,"test_onset",688624,359,"onset_syllable",NA,"IH","LEFT",0,-11,16,-0.6875,-9.56715341626104,NA,0.99,0.957446808510638
"155",24,"BIH_PIH_1_27","coda-onset",NA,"control",83,16,2,939,27,"test_onset",690566,360,"onset_syllable",NA,"IH","LEFT",1,11,14,0.785714285714286,12.432846583739,NA,0.99,0.957446808510638
"156",24,"BAH_PAH_3_05","coda-onset",NA,"control",75,23,3,992,5,"test_onset",692557,361,"onset_syllable",NA,"AH","LEFT",0,-18,23,-0.782608695652174,-9.56715341626104,NA,0.99,0.957446808510638
"157",24,"BUH_PUH_3_10","coda-onset",NA,"control",75,21,3,1003,10,"test_onset",694564,362,"onset_syllable",NA,"UH","LEFT",0,-11,21,-0.523809523809524,-4.56715341626104,NA,0.99,0.957446808510638
"158",24,"BAA_PAA_3_15","coda-onset",NA,"control",75,25,1,1173,15,"test_onset",696735,363,"onset_syllable",NA,"AA","LEFT",0,-10,25,-0.4,0.432846583738957,NA,0.99,0.957446808510638
"159",24,"BIH_PIH_1_15","coda-onset",NA,"control",75,16,3,1056,15,"test_onset",698803,364,"onset_syllable",NA,"IH","LEFT",0,-1,16,-0.0625,0.432846583738957,NA,0.99,0.957446808510638
"160",24,"BAH_PAH_3_24","coda-onset",NA,"control",83,23,2,907,24,"test_onset",700711,365,"onset_syllable",NA,"AH","LEFT",1,1,7,0.142857142857143,9.43284658373896,NA,0.99,0.957446808510638
"161",24,"BUH_PUH_3_22","coda-onset",NA,"control",83,21,3,800,22,"test_onset",702508,366,"onset_syllable",NA,"UH","LEFT",1,1,9,0.111111111111111,7.43284658373896,NA,0.99,0.957446808510638
"162",24,"BAH_PAH_3_05","coda-onset",NA,"control",75,23,1,1099,5,"test_onset",704616,367,"onset_syllable",NA,"AH","LEFT",0,-18,23,-0.782608695652174,-9.56715341626104,NA,0.99,0.957446808510638
"163",24,"BAA_PAA_3_30","coda-onset",NA,"control",83,25,3,981,30,"test_onset",706609,368,"onset_syllable",NA,"AA","LEFT",1,5,5,1,15.432846583739,NA,0.99,0.957446808510638
"164",24,"BAH_PAH_3_10","coda-onset",NA,"control",75,23,1,971,10,"test_onset",708576,369,"onset_syllable",NA,"AH","LEFT",0,-13,23,-0.565217391304348,-4.56715341626104,NA,0.99,0.957446808510638
"165",24,"BIH_PIH_1_20","coda-onset",NA,"control",83,16,3,981,20,"test_onset",710566,370,"onset_syllable",NA,"IH","LEFT",1,4,14,0.285714285714286,5.43284658373896,NA,0.99,0.957446808510638
"166",24,"BIH_PIH_1_24","coda-onset",NA,"control",83,16,2,1387,24,"test_onset",712950,371,"onset_syllable",NA,"IH","LEFT",1,8,14,0.571428571428571,9.43284658373896,NA,0.99,0.957446808510638
"167",24,"BAA_PAA_3_20","coda-onset",NA,"control",75,25,3,864,20,"test_onset",714816,372,"onset_syllable",NA,"AA","LEFT",0,-5,25,-0.2,5.43284658373896,NA,0.99,0.957446808510638
"168",24,"BIH_PIH_1_22","coda-onset",NA,"control",75,16,3,896,22,"test_onset",716716,373,"onset_syllable",NA,"IH","LEFT",0,6,14,0.428571428571429,7.43284658373896,NA,0.99,0.957446808510638
"169",24,"BAH_PAH_3_27","coda-onset",NA,"control",83,23,2,864,27,"test_onset",718582,374,"onset_syllable",NA,"AH","LEFT",1,4,7,0.571428571428571,12.432846583739,NA,0.99,0.957446808510638
"170",24,"BIH_PIH_1_18","coda-onset",NA,"control",75,16,2,992,18,"test_onset",720581,375,"onset_syllable",NA,"IH","LEFT",0,2,14,0.142857142857143,3.43284658373896,NA,0.99,0.957446808510638
"171",24,"BIH_PIH_1_05","coda-onset",NA,"control",75,16,1,960,5,"test_onset",722541,376,"onset_syllable",NA,"IH","LEFT",0,-11,16,-0.6875,-9.56715341626104,NA,0.99,0.957446808510638
"172",24,"BIH_PIH_1_27","coda-onset",NA,"control",83,16,3,949,27,"test_onset",724499,377,"onset_syllable",NA,"IH","LEFT",1,11,14,0.785714285714286,12.432846583739,NA,0.99,0.957446808510638
"173",24,"BIH_PIH_1_10","coda-onset",NA,"control",75,16,2,875,10,"test_onset",726386,378,"onset_syllable",NA,"IH","LEFT",0,-6,16,-0.375,-4.56715341626104,NA,0.99,0.957446808510638
"174",24,"BIH_PIH_1_24","coda-onset",NA,"control",75,16,1,928,24,"test_onset",728318,379,"onset_syllable",NA,"IH","LEFT",0,8,14,0.571428571428571,9.43284658373896,NA,0.99,0.957446808510638
"175",24,"BUH_PUH_3_18","coda-onset",NA,"control",75,21,3,939,18,"test_onset",730268,380,"onset_syllable",NA,"UH","LEFT",0,-3,21,-0.142857142857143,3.43284658373896,NA,0.99,0.957446808510638
"176",24,"BAA_PAA_3_10","coda-onset",NA,"control",75,25,2,1003,10,"test_onset",732272,381,"onset_syllable",NA,"AA","LEFT",0,-15,25,-0.6,-4.56715341626104,NA,0.99,0.957446808510638
"177",24,"BIH_PIH_1_20","coda-onset",NA,"control",75,16,1,1237,20,"test_onset",734507,382,"onset_syllable",NA,"IH","LEFT",0,4,14,0.285714285714286,5.43284658373896,NA,0.99,0.957446808510638
"178",24,"BUH_PUH_3_30","coda-onset",NA,"control",83,21,2,821,30,"test_onset",736332,383,"onset_syllable",NA,"UH","LEFT",1,9,9,1,15.432846583739,NA,0.99,0.957446808510638
"179",24,"BAH_PAH_3_00","coda-onset",NA,"control",75,23,2,917,0,"test_onset",738256,384,"onset_syllable",NA,"AH","LEFT",0,-23,23,-1,-14.567153416261,NA,0.99,0.957446808510638
"180",24,"BAH_PAH_3_22","coda-onset",NA,"control",75,23,2,917,22,"test_onset",740174,385,"onset_syllable",NA,"AH","LEFT",0,-1,23,-0.0434782608695652,7.43284658373896,NA,0.99,0.957446808510638
"181",24,"BIH_PIH_1_00","coda-onset",NA,"control",75,16,1,853,0,"test_onset",742029,386,"onset_syllable",NA,"IH","LEFT",0,-16,16,-1,-14.567153416261,NA,0.99,0.957446808510638
"182",24,"BIH_PIH_1_22","coda-onset",NA,"control",75,16,2,853,22,"test_onset",743882,387,"onset_syllable",NA,"IH","LEFT",0,6,14,0.428571428571429,7.43284658373896,NA,0.99,0.957446808510638
"183",24,"BUH_PUH_3_05","coda-onset",NA,"control",75,21,1,960,5,"test_onset",745849,388,"onset_syllable",NA,"UH","LEFT",0,-16,21,-0.761904761904762,-9.56715341626104,NA,0.99,0.957446808510638
"184",24,"BAH_PAH_3_18","coda-onset",NA,"control",75,23,3,853,18,"test_onset",747703,389,"onset_syllable",NA,"AH","LEFT",0,-5,23,-0.217391304347826,3.43284658373896,NA,0.99,0.957446808510638
"185",24,"BUH_PUH_3_18","coda-onset",NA,"control",75,21,2,811,18,"test_onset",749522,390,"onset_syllable",NA,"UH","LEFT",0,-3,21,-0.142857142857143,3.43284658373896,NA,0.99,0.957446808510638
"186",24,"BUH_PUH_3_00","coda-onset",NA,"control",75,21,3,800,0,"test_onset",751325,391,"onset_syllable",NA,"UH","LEFT",0,-21,21,-1,-14.567153416261,NA,0.99,0.957446808510638
"187",24,"BAA_PAA_3_00","coda-onset",NA,"control",75,25,3,960,0,"test_onset",753287,392,"onset_syllable",NA,"AA","LEFT",0,-25,25,-1,-14.567153416261,NA,0.99,0.957446808510638
"188",24,"BUH_PUH_3_27","coda-onset",NA,"control",83,21,3,896,27,"test_onset",755180,393,"onset_syllable",NA,"UH","LEFT",1,6,9,0.666666666666667,12.432846583739,NA,0.99,0.957446808510638
"189",24,"BAA_PAA_3_22","coda-onset",NA,"control",75,25,1,885,22,"test_onset",757065,394,"onset_syllable",NA,"AA","LEFT",0,-3,25,-0.12,7.43284658373896,NA,0.99,0.957446808510638
"190",24,"BIH_PIH_1_27","coda-onset",NA,"control",83,16,1,928,27,"test_onset",758998,395,"onset_syllable",NA,"IH","LEFT",1,11,14,0.785714285714286,12.432846583739,NA,0.99,0.957446808510638
"191",24,"BUH_PUH_3_22","coda-onset",NA,"control",83,21,2,1205,22,"test_onset",761208,396,"onset_syllable",NA,"UH","LEFT",1,1,9,0.111111111111111,7.43284658373896,NA,0.99,0.957446808510638
"192",24,"BUH_PUH_3_27","coda-onset",NA,"control",83,21,2,917,27,"test_onset",763127,397,"onset_syllable",NA,"UH","LEFT",1,6,9,0.666666666666667,12.432846583739,NA,0.99,0.957446808510638
"193",24,"BUH_PUH_3_22","coda-onset",NA,"control",83,21,1,875,22,"test_onset",765004,398,"onset_syllable",NA,"UH","LEFT",1,1,9,0.111111111111111,7.43284658373896,NA,0.99,0.957446808510638
"194",24,"BAA_PAA_3_20","coda-onset",NA,"control",75,25,1,907,20,"test_onset",766911,399,"onset_syllable",NA,"AA","LEFT",0,-5,25,-0.2,5.43284658373896,NA,0.99,0.957446808510638
"195",24,"BUH_PUH_3_30","coda-onset",NA,"control",83,21,3,949,30,"test_onset",768864,400,"onset_syllable",NA,"UH","LEFT",1,9,9,1,15.432846583739,NA,0.99,0.957446808510638
"196",24,"BUH_PUH_3_20","coda-onset",NA,"control",83,21,2,992,20,"test_onset",770865,401,"onset_syllable",NA,"UH","LEFT",1,-1,21,-0.0476190476190476,5.43284658373896,NA,0.99,0.957446808510638
"197",24,"BUH_PUH_3_15","coda-onset",NA,"control",75,21,2,928,15,"test_onset",772791,402,"onset_syllable",NA,"UH","LEFT",0,-6,21,-0.285714285714286,0.432846583738957,NA,0.99,0.957446808510638
"198",24,"BAH_PAH_3_05","coda-onset",NA,"control",75,23,2,1237,5,"test_onset",775028,403,"onset_syllable",NA,"AH","LEFT",0,-18,23,-0.782608695652174,-9.56715341626104,NA,0.99,0.957446808510638
"199",24,"BAH_PAH_3_30","coda-onset",NA,"control",83,23,2,1387,30,"test_onset",777424,404,"onset_syllable",NA,"AH","LEFT",1,7,7,1,15.432846583739,NA,0.99,0.957446808510638
"200",24,"BAH_PAH_3_18","coda-onset",NA,"control",75,23,1,1525,18,"test_onset",779947,405,"onset_syllable",NA,"AH","LEFT",0,-5,23,-0.217391304347826,3.43284658373896,NA,0.99,0.957446808510638
"201",24,"BUH_PUH_3_00","coda-onset",NA,"control",75,21,2,971,0,"test_onset",781920,406,"onset_syllable",NA,"UH","LEFT",0,-21,21,-1,-14.567153416261,NA,0.99,0.957446808510638
"202",24,"BAA_PAA_3_10","coda-onset",NA,"control",75,25,1,1003,10,"test_onset",783925,407,"onset_syllable",NA,"AA","LEFT",0,-15,25,-0.6,-4.56715341626104,NA,0.99,0.957446808510638
"203",24,"BIH_PIH_1_00","coda-onset",NA,"control",75,16,3,907,0,"test_onset",785839,408,"onset_syllable",NA,"IH","LEFT",0,-16,16,-1,-14.567153416261,NA,0.99,0.957446808510638
"204",24,"BUH_PUH_3_15","coda-onset",NA,"control",75,21,3,789,15,"test_onset",787636,409,"onset_syllable",NA,"UH","LEFT",0,-6,21,-0.285714285714286,0.432846583738957,NA,0.99,0.957446808510638
"205",24,"BUH_PUH_3_24","coda-onset",NA,"control",83,21,1,747,24,"test_onset",789390,410,"onset_syllable",NA,"UH","LEFT",1,3,9,0.333333333333333,9.43284658373896,NA,0.99,0.957446808510638
"206",24,"BIH_PIH_1_10","coda-onset",NA,"control",75,16,1,907,10,"test_onset",791300,411,"onset_syllable",NA,"IH","LEFT",0,-6,16,-0.375,-4.56715341626104,NA,0.99,0.957446808510638
"207",24,"BAH_PAH_3_10","coda-onset",NA,"control",75,23,3,939,10,"test_onset",793244,412,"onset_syllable",NA,"AH","LEFT",0,-13,23,-0.565217391304348,-4.56715341626104,NA,0.99,0.957446808510638
"208",24,"BAA_PAA_3_05","coda-onset",NA,"control",75,25,3,853,5,"test_onset",795099,413,"onset_syllable",NA,"AA","LEFT",0,-20,25,-0.8,-9.56715341626104,NA,0.99,0.957446808510638
"209",24,"BAA_PAA_3_30","coda-onset",NA,"control",83,25,2,843,30,"test_onset",796938,414,"onset_syllable",NA,"AA","LEFT",1,5,5,1,15.432846583739,NA,0.99,0.957446808510638
"210",24,"BAH_PAH_3_00","coda-onset",NA,"control",75,23,3,779,0,"test_onset",798714,415,"onset_syllable",NA,"AH","LEFT",0,-23,23,-1,-14.567153416261,NA,0.99,0.957446808510638
"211",24,"BUH_PUH_3_24","coda-onset",NA,"control",83,21,2,875,24,"test_onset",800588,416,"onset_syllable",NA,"UH","LEFT",1,3,9,0.333333333333333,9.43284658373896,NA,0.99,0.957446808510638
"212",24,"BAH_PAH_3_22","coda-onset",NA,"control",75,23,1,1323,22,"test_onset",802911,417,"onset_syllable",NA,"AH","LEFT",0,-1,23,-0.0434782608695652,7.43284658373896,NA,0.99,0.957446808510638
"213",24,"BUH_PUH_3_05","coda-onset",NA,"control",75,21,2,896,5,"test_onset",804799,418,"onset_syllable",NA,"UH","LEFT",0,-16,21,-0.761904761904762,-9.56715341626104,NA,0.99,0.957446808510638
"214",24,"BUH_PUH_3_10","coda-onset",NA,"control",75,21,2,832,10,"test_onset",806640,419,"onset_syllable",NA,"UH","LEFT",0,-11,21,-0.523809523809524,-4.56715341626104,NA,0.99,0.957446808510638
"215",24,"BIH_PIH_1_22","coda-onset",NA,"control",75,16,1,917,22,"test_onset",808554,420,"onset_syllable",NA,"IH","LEFT",0,6,14,0.428571428571429,7.43284658373896,NA,0.99,0.957446808510638
"216",24,"BAA_PAA_3_10","coda-onset",NA,"control",75,25,3,832,10,"test_onset",810394,421,"onset_syllable",NA,"AA","LEFT",0,-15,25,-0.6,-4.56715341626104,NA,0.99,0.957446808510638
"217",24,"BAH_PAH_3_20","coda-onset",NA,"control",75,23,1,843,20,"test_onset",812243,422,"onset_syllable",NA,"AH","LEFT",0,-3,23,-0.130434782608696,5.43284658373896,NA,0.99,0.957446808510638
"218",24,"BUH_PUH_3_30","coda-onset",NA,"control",83,21,1,736,30,"test_onset",813973,423,"onset_syllable",NA,"UH","LEFT",1,9,9,1,15.432846583739,NA,0.99,0.957446808510638
"219",24,"BUH_PUH_3_10","coda-onset",NA,"control",75,21,1,821,10,"test_onset",815796,424,"onset_syllable",NA,"UH","LEFT",0,-11,21,-0.523809523809524,-4.56715341626104,NA,0.99,0.957446808510638
"220",24,"BAH_PAH_3_24","coda-onset",NA,"control",83,23,1,1301,24,"test_onset",818091,425,"onset_syllable",NA,"AH","LEFT",1,1,7,0.142857142857143,9.43284658373896,NA,0.99,0.957446808510638
"221",24,"BAH_PAH_3_20","coda-onset",NA,"control",75,23,2,939,20,"test_onset",820032,426,"onset_syllable",NA,"AH","LEFT",0,-3,23,-0.130434782608696,5.43284658373896,NA,0.99,0.957446808510638
"222",24,"BAA_PAA_3_18","coda-onset",NA,"control",75,25,1,885,18,"test_onset",821924,427,"onset_syllable",NA,"AA","LEFT",0,-7,25,-0.28,3.43284658373896,NA,0.99,0.957446808510638
"223",24,"BAH_PAH_3_15","coda-onset",NA,"control",75,23,2,907,15,"test_onset",823835,428,"onset_syllable",NA,"AH","LEFT",0,-8,23,-0.347826086956522,0.432846583738957,NA,0.99,0.957446808510638
"224",24,"BUH_PUH_3_05","coda-onset",NA,"control",75,21,3,832,5,"test_onset",825673,429,"onset_syllable",NA,"UH","LEFT",0,-16,21,-0.761904761904762,-9.56715341626104,NA,0.99,0.957446808510638
"225",24,"BUH_PUH_3_20","coda-onset",NA,"control",75,21,1,800,20,"test_onset",827474,430,"onset_syllable",NA,"UH","LEFT",0,-1,21,-0.0476190476190476,5.43284658373896,NA,0.99,0.957446808510638
"226",24,"BIH_PIH_1_30","coda-onset",NA,"control",83,16,1,992,30,"test_onset",829462,431,"onset_syllable",NA,"IH","LEFT",1,14,14,1,15.432846583739,NA,0.99,0.957446808510638
"227",24,"BIH_PIH_1_10","coda-onset",NA,"control",75,16,3,907,10,"test_onset",831370,432,"onset_syllable",NA,"IH","LEFT",0,-6,16,-0.375,-4.56715341626104,NA,0.99,0.957446808510638
"228",24,"BAA_PAA_3_20","coda-onset",NA,"control",75,25,2,843,20,"test_onset",833206,433,"onset_syllable",NA,"AA","LEFT",0,-5,25,-0.2,5.43284658373896,NA,0.99,0.957446808510638
"229",24,"BAA_PAA_3_18","coda-onset",NA,"control",75,25,3,779,18,"test_onset",834991,434,"onset_syllable",NA,"AA","LEFT",0,-7,25,-0.28,3.43284658373896,NA,0.99,0.957446808510638
"230",24,"BUH_PUH_3_27","coda-onset",NA,"control",83,21,1,800,27,"test_onset",836796,435,"onset_syllable",NA,"UH","LEFT",1,6,9,0.666666666666667,12.432846583739,NA,0.99,0.957446808510638
"231",24,"BIH_PIH_1_30","coda-onset",NA,"control",75,16,2,939,30,"test_onset",838730,436,"onset_syllable",NA,"IH","LEFT",0,14,14,1,15.432846583739,NA,0.99,0.957446808510638
"232",24,"BAH_PAH_3_18","coda-onset",NA,"control",75,23,2,885,18,"test_onset",840624,437,"onset_syllable",NA,"AH","LEFT",0,-5,23,-0.217391304347826,3.43284658373896,NA,0.99,0.957446808510638
"233",24,"BAA_PAA_3_00","coda-onset",NA,"control",75,25,2,1045,0,"test_onset",842672,438,"onset_syllable",NA,"AA","LEFT",0,-25,25,-1,-14.567153416261,NA,0.99,0.957446808510638
"234",24,"BAH_PAH_3_22","coda-onset",NA,"control",83,23,3,1120,22,"test_onset",844791,439,"onset_syllable",NA,"AH","LEFT",1,-1,23,-0.0434782608695652,7.43284658373896,NA,0.99,0.957446808510638
"235",24,"BIH_PIH_1_00","coda-onset",NA,"control",75,16,2,1003,0,"test_onset",846799,440,"onset_syllable",NA,"IH","LEFT",0,-16,16,-1,-14.567153416261,NA,0.99,0.957446808510638
"236",24,"BIH_PIH_1_15","coda-onset",NA,"control",75,16,1,907,15,"test_onset",848705,441,"onset_syllable",NA,"IH","LEFT",0,-1,16,-0.0625,0.432846583738957,NA,0.99,0.957446808510638
"237",24,"BAA_PAA_3_00","coda-onset",NA,"control",75,25,1,907,0,"test_onset",850615,442,"onset_syllable",NA,"AA","LEFT",0,-25,25,-1,-14.567153416261,NA,0.99,0.957446808510638
"238",24,"BIH_PIH_1_18","coda-onset",NA,"control",75,16,3,949,18,"test_onset",852567,443,"onset_syllable",NA,"IH","LEFT",0,2,14,0.142857142857143,3.43284658373896,NA,0.99,0.957446808510638
"239",24,"BAA_PAA_3_05","coda-onset",NA,"control",75,25,2,811,5,"test_onset",854387,444,"onset_syllable",NA,"AA","LEFT",0,-20,25,-0.8,-9.56715341626104,NA,0.99,0.957446808510638
"240",47,"IHB_IHP_5_00","coda-onset",NA,"b_group",83,7,3,1835,0,"test_coda",320660,204,"coda_syllable",NA,"IH","LEFT",1,-7,7,-1,-14.567153416261,NA,0.9,0.630434782608696
"241",47,"IHB_IHP_5_20","coda-onset",NA,"b_group",75,7,1,1941,20,"test_coda",323606,205,"coda_syllable",NA,"IH","LEFT",0,13,23,0.565217391304348,5.43284658373896,NA,0.9,0.630434782608696
"242",47,"AAB_AAP_1_07","coda-onset",NA,"b_group",75,11,2,1960,7,"test_coda",326576,206,"coda_syllable",NA,"AA","LEFT",0,-4,11,-0.363636363636364,-7.56715341626104,NA,0.9,0.630434782608696
"243",47,"IHB_IHP_5_04","coda-onset",NA,"b_group",75,7,3,901,4,"test_coda",328489,207,"coda_syllable",NA,"IH","LEFT",0,-3,7,-0.428571428571429,-10.567153416261,NA,0.9,0.630434782608696
"244",47,"AHB_AHP_3_09","coda-onset",NA,"b_group",83,14,3,1219,9,"test_coda",330717,208,"coda_syllable",NA,"AH","LEFT",1,-5,14,-0.357142857142857,-5.56715341626104,NA,0.9,0.630434782608696
"245",47,"AHB_AHP_3_16","coda-onset",NA,"b_group",83,14,3,720,16,"test_coda",332450,209,"coda_syllable",NA,"AH","LEFT",1,2,16,0.125,1.43284658373896,NA,0.9,0.630434782608696
"246",47,"AAB_AAP_1_04","coda-onset",NA,"b_group",75,11,1,1120,4,"test_coda",334586,210,"coda_syllable",NA,"AA","LEFT",0,-7,11,-0.636363636363636,-10.567153416261,NA,0.9,0.630434782608696
"247",47,"AHB_AHP_3_11","coda-onset",NA,"b_group",75,14,2,1125,11,"test_coda",336724,211,"coda_syllable",NA,"AH","LEFT",0,-3,14,-0.214285714285714,-3.56715341626104,NA,0.9,0.630434782608696
"248",47,"IHB_IHP_5_07","coda-onset",NA,"b_group",75,7,2,1256,7,"test_coda",338975,212,"coda_syllable",NA,"IH","LEFT",0,0,7,0,-7.56715341626104,NA,0.9,0.630434782608696
"249",47,"UHB_UHP_5_07","coda-onset",NA,"b_group",75,8,3,957,7,"test_coda",340935,213,"coda_syllable",NA,"UH","LEFT",0,-1,8,-0.125,-7.56715341626104,NA,0.9,0.630434782608696
"250",47,"IHB_IHP_5_16","coda-onset",NA,"b_group",75,7,3,1261,16,"test_coda",343205,214,"coda_syllable",NA,"IH","LEFT",0,9,23,0.391304347826087,1.43284658373896,NA,0.9,0.630434782608696
"251",47,"AHB_AHP_3_00","coda-onset",NA,"b_group",75,14,3,1016,0,"test_coda",345230,215,"coda_syllable",NA,"AH","LEFT",0,-14,14,-1,-14.567153416261,NA,0.9,0.630434782608696
"252",47,"UHB_UHP_5_07","coda-onset",NA,"b_group",83,8,1,939,7,"test_coda",347187,216,"coda_syllable",NA,"UH","LEFT",1,-1,8,-0.125,-7.56715341626104,NA,0.9,0.630434782608696
"253",47,"AHB_AHP_3_00","coda-onset",NA,"b_group",83,14,1,965,0,"test_coda",349167,217,"coda_syllable",NA,"AH","LEFT",1,-14,14,-1,-14.567153416261,NA,0.9,0.630434782608696
"254",47,"IHB_IHP_5_13","coda-onset",NA,"b_group",75,7,3,923,13,"test_coda",351103,218,"coda_syllable",NA,"IH","LEFT",0,6,23,0.260869565217391,-1.56715341626104,NA,0.9,0.630434782608696
"255",47,"AHB_AHP_3_30","coda-onset",NA,"b_group",83,14,3,917,30,"test_coda",353014,219,"coda_syllable",NA,"AH","LEFT",1,16,16,1,15.432846583739,NA,0.9,0.630434782608696
"256",47,"AHB_AHP_3_00","coda-onset",NA,"b_group",75,14,2,1357,0,"test_coda",355376,220,"coda_syllable",NA,"AH","LEFT",0,-14,14,-1,-14.567153416261,NA,0.9,0.630434782608696
"257",47,"UHB_UHP_5_16","coda-onset",NA,"b_group",75,8,1,1101,16,"test_coda",357490,221,"coda_syllable",NA,"UH","LEFT",0,8,22,0.363636363636364,1.43284658373896,NA,0.9,0.630434782608696
"258",47,"UHB_UHP_5_09","coda-onset",NA,"b_group",83,8,2,920,9,"test_coda",359425,222,"coda_syllable",NA,"UH","LEFT",1,1,22,0.0454545454545455,-5.56715341626104,NA,0.9,0.630434782608696
"259",47,"IHB_IHP_5_20","coda-onset",NA,"b_group",75,7,3,1197,20,"test_coda",361631,223,"coda_syllable",NA,"IH","LEFT",0,13,23,0.565217391304348,5.43284658373896,NA,0.9,0.630434782608696
"260",47,"AAB_AAP_1_09","coda-onset",NA,"b_group",75,11,2,1019,9,"test_coda",363657,224,"coda_syllable",NA,"AA","LEFT",0,-2,11,-0.181818181818182,-5.56715341626104,NA,0.9,0.630434782608696
"261",47,"UHB_UHP_5_30","coda-onset",NA,"b_group",75,8,1,1160,30,"test_coda",365817,225,"coda_syllable",NA,"UH","LEFT",0,22,22,1,15.432846583739,NA,0.9,0.630434782608696
"262",47,"UHB_UHP_5_30","coda-onset",NA,"b_group",83,8,2,840,30,"test_coda",367661,226,"coda_syllable",NA,"UH","LEFT",1,22,22,1,15.432846583739,NA,0.9,0.630434782608696
"263",47,"IHB_IHP_5_09","coda-onset",NA,"b_group",75,7,3,960,9,"test_coda",369618,227,"coda_syllable",NA,"IH","LEFT",0,2,23,0.0869565217391304,-5.56715341626104,NA,0.9,0.630434782608696
"264",47,"AAB_AAP_1_16","coda-onset",NA,"b_group",75,11,3,960,16,"test_coda",371577,228,"coda_syllable",NA,"AA","LEFT",0,5,19,0.263157894736842,1.43284658373896,NA,0.9,0.630434782608696
"265",47,"AHB_AHP_3_16","coda-onset",NA,"b_group",75,14,2,957,16,"test_coda",373534,229,"coda_syllable",NA,"AH","LEFT",0,2,16,0.125,1.43284658373896,NA,0.9,0.630434782608696
"266",47,"AAB_AAP_1_13","coda-onset",NA,"b_group",75,11,3,840,13,"test_coda",375379,230,"coda_syllable",NA,"AA","LEFT",0,2,19,0.105263157894737,-1.56715341626104,NA,0.9,0.630434782608696
"267",47,"UHB_UHP_5_16","coda-onset",NA,"b_group",75,8,2,960,16,"test_coda",377337,231,"coda_syllable",NA,"UH","LEFT",0,8,22,0.363636363636364,1.43284658373896,NA,0.9,0.630434782608696
"268",47,"AAB_AAP_1_09","coda-onset",NA,"b_group",75,11,1,1296,9,"test_coda",379632,232,"coda_syllable",NA,"AA","LEFT",0,-2,11,-0.181818181818182,-5.56715341626104,NA,0.9,0.630434782608696
"269",47,"AHB_AHP_3_04","coda-onset",NA,"b_group",75,14,1,939,4,"test_coda",381589,233,"coda_syllable",NA,"AH","LEFT",0,-10,14,-0.714285714285714,-10.567153416261,NA,0.9,0.630434782608696
"270",47,"IHB_IHP_5_09","coda-onset",NA,"b_group",75,7,1,1059,9,"test_coda",383658,234,"coda_syllable",NA,"IH","LEFT",0,2,23,0.0869565217391304,-5.56715341626104,NA,0.9,0.630434782608696
"271",47,"IHB_IHP_5_11","coda-onset",NA,"b_group",75,7,3,1117,11,"test_coda",385774,235,"coda_syllable",NA,"IH","LEFT",0,4,23,0.173913043478261,-3.56715341626104,NA,0.9,0.630434782608696
"272",47,"AAB_AAP_1_00","coda-onset",NA,"b_group",75,11,3,1781,0,"test_coda",388569,236,"coda_syllable",NA,"AA","LEFT",0,-11,11,-1,-14.567153416261,NA,0.9,0.630434782608696
"273",47,"IHB_IHP_5_25","coda-onset",NA,"b_group",75,7,3,1123,25,"test_coda",390701,237,"coda_syllable",NA,"IH","LEFT",0,18,23,0.782608695652174,10.432846583739,NA,0.9,0.630434782608696
"274",47,"AAB_AAP_1_09","coda-onset",NA,"b_group",75,11,3,1400,9,"test_coda",393109,238,"coda_syllable",NA,"AA","LEFT",0,-2,11,-0.181818181818182,-5.56715341626104,NA,0.9,0.630434782608696
"275",47,"IHB_IHP_5_30","coda-onset",NA,"b_group",83,7,3,800,30,"test_coda",399925,240,"coda_syllable",NA,"IH","LEFT",1,23,23,1,15.432846583739,NA,0.9,0.630434782608696
"276",47,"UHB_UHP_5_11","coda-onset",NA,"b_group",83,8,1,1123,11,"test_coda",402063,241,"coda_syllable",NA,"UH","LEFT",1,3,22,0.136363636363636,-3.56715341626104,NA,0.9,0.630434782608696
"277",47,"AAB_AAP_1_30","coda-onset",NA,"b_group",83,11,3,1000,30,"test_coda",404088,242,"coda_syllable",NA,"AA","LEFT",1,19,19,1,15.432846583739,NA,0.9,0.630434782608696
"278",47,"AHB_AHP_3_09","coda-onset",NA,"b_group",83,14,2,920,9,"test_coda",406020,243,"coda_syllable",NA,"AH","LEFT",1,-5,14,-0.357142857142857,-5.56715341626104,NA,0.9,0.630434782608696
"279",47,"UHB_UHP_5_25","coda-onset",NA,"b_group",83,8,1,1413,25,"test_coda",408430,244,"coda_syllable",NA,"UH","LEFT",1,17,22,0.772727272727273,10.432846583739,NA,0.9,0.630434782608696
"280",47,"IHB_IHP_5_30","coda-onset",NA,"b_group",83,7,2,920,30,"test_coda",410366,245,"coda_syllable",NA,"IH","LEFT",1,23,23,1,15.432846583739,NA,0.9,0.630434782608696
"281",47,"UHB_UHP_5_20","coda-onset",NA,"b_group",83,8,2,1083,20,"test_coda",412457,246,"coda_syllable",NA,"UH","LEFT",1,12,22,0.545454545454545,5.43284658373896,NA,0.9,0.630434782608696
"282",47,"AAB_AAP_1_04","coda-onset",NA,"b_group",75,11,3,960,4,"test_coda",414416,247,"coda_syllable",NA,"AA","LEFT",0,-7,11,-0.636363636363636,-10.567153416261,NA,0.9,0.630434782608696
"283",47,"AAB_AAP_1_16","coda-onset",NA,"b_group",75,11,1,976,16,"test_coda",416396,248,"coda_syllable",NA,"AA","LEFT",0,5,19,0.263157894736842,1.43284658373896,NA,0.9,0.630434782608696
"284",47,"AAB_AAP_1_30","coda-onset",NA,"b_group",75,11,1,1019,30,"test_coda",418420,249,"coda_syllable",NA,"AA","LEFT",0,19,19,1,15.432846583739,NA,0.9,0.630434782608696
"285",47,"UHB_UHP_5_13","coda-onset",NA,"b_group",83,8,1,981,13,"test_coda",420401,250,"coda_syllable",NA,"UH","LEFT",1,5,22,0.227272727272727,-1.56715341626104,NA,0.9,0.630434782608696
"286",47,"UHB_UHP_5_00","coda-onset",NA,"b_group",75,8,3,1179,0,"test_coda",422584,251,"coda_syllable",NA,"UH","LEFT",0,-8,8,-1,-14.567153416261,NA,0.9,0.630434782608696
"287",47,"UHB_UHP_5_04","coda-onset",NA,"b_group",75,8,3,1021,4,"test_coda",424608,252,"coda_syllable",NA,"UH","LEFT",0,-4,8,-0.5,-10.567153416261,NA,0.9,0.630434782608696
"288",47,"IHB_IHP_5_04","coda-onset",NA,"b_group",75,7,1,1243,4,"test_coda",426860,253,"coda_syllable",NA,"IH","LEFT",0,-3,7,-0.428571428571429,-10.567153416261,NA,0.9,0.630434782608696
"289",47,"AAB_AAP_1_16","coda-onset",NA,"b_group",75,11,2,1421,16,"test_coda",429286,254,"coda_syllable",NA,"AA","LEFT",0,5,19,0.263157894736842,1.43284658373896,NA,0.9,0.630434782608696
"290",47,"UHB_UHP_5_20","coda-onset",NA,"b_group",83,8,3,1344,20,"test_coda",431652,255,"coda_syllable",NA,"UH","LEFT",1,12,22,0.545454545454545,5.43284658373896,NA,0.9,0.630434782608696
"291",47,"UHB_UHP_5_13","coda-onset",NA,"b_group",83,8,2,741,13,"test_coda",433406,256,"coda_syllable",NA,"UH","LEFT",1,5,22,0.227272727272727,-1.56715341626104,NA,0.9,0.630434782608696
"292",47,"AAB_AAP_1_07","coda-onset",NA,"b_group",75,11,1,875,7,"test_coda",435274,257,"coda_syllable",NA,"AA","LEFT",0,-4,11,-0.363636363636364,-7.56715341626104,NA,0.9,0.630434782608696
"293",47,"IHB_IHP_5_00","coda-onset",NA,"b_group",83,7,1,1019,0,"test_coda",437299,258,"coda_syllable",NA,"IH","LEFT",1,-7,7,-1,-14.567153416261,NA,0.9,0.630434782608696
"294",47,"AHB_AHP_3_30","coda-onset",NA,"b_group",83,14,2,936,30,"test_coda",439236,259,"coda_syllable",NA,"AH","LEFT",1,16,16,1,15.432846583739,NA,0.9,0.630434782608696
"295",47,"AHB_AHP_3_13","coda-onset",NA,"b_group",75,14,1,1059,13,"test_coda",441304,260,"coda_syllable",NA,"AH","LEFT",0,-1,14,-0.0714285714285714,-1.56715341626104,NA,0.9,0.630434782608696
"296",47,"AAB_AAP_1_25","coda-onset",NA,"b_group",83,11,1,1541,25,"test_coda",443846,261,"coda_syllable",NA,"AA","LEFT",1,14,19,0.736842105263158,10.432846583739,NA,0.9,0.630434782608696
"297",47,"IHB_IHP_5_13","coda-onset",NA,"b_group",83,7,2,1443,13,"test_coda",446300,262,"coda_syllable",NA,"IH","LEFT",1,6,23,0.260869565217391,-1.56715341626104,NA,0.9,0.630434782608696
"298",47,"AHB_AHP_3_07","coda-onset",NA,"b_group",75,14,2,1040,7,"test_coda",448346,263,"coda_syllable",NA,"AH","LEFT",0,-7,14,-0.5,-7.56715341626104,NA,0.9,0.630434782608696
"299",47,"AAB_AAP_1_25","coda-onset",NA,"b_group",83,11,3,877,25,"test_coda",450215,264,"coda_syllable",NA,"AA","LEFT",1,14,19,0.736842105263158,10.432846583739,NA,0.9,0.630434782608696
"300",47,"AHB_AHP_3_30","coda-onset",NA,"b_group",83,14,1,1120,30,"test_coda",452351,265,"coda_syllable",NA,"AH","LEFT",1,16,16,1,15.432846583739,NA,0.9,0.630434782608696
"301",47,"UHB_UHP_5_11","coda-onset",NA,"b_group",83,8,3,1035,11,"test_coda",454399,266,"coda_syllable",NA,"UH","LEFT",1,3,22,0.136363636363636,-3.56715341626104,NA,0.9,0.630434782608696
"302",47,"AHB_AHP_3_09","coda-onset",NA,"b_group",75,14,1,1019,9,"test_coda",456421,267,"coda_syllable",NA,"AH","LEFT",0,-5,14,-0.357142857142857,-5.56715341626104,NA,0.9,0.630434782608696
"303",47,"AHB_AHP_3_11","coda-onset",NA,"b_group",75,14,3,1000,11,"test_coda",458425,268,"coda_syllable",NA,"AH","LEFT",0,-3,14,-0.214285714285714,-3.56715341626104,NA,0.9,0.630434782608696
"304",47,"IHB_IHP_5_13","coda-onset",NA,"b_group",83,7,1,1344,13,"test_coda",460789,269,"coda_syllable",NA,"IH","LEFT",1,6,23,0.260869565217391,-1.56715341626104,NA,0.9,0.630434782608696
"305",47,"AHB_AHP_3_20","coda-onset",NA,"b_group",83,14,1,1245,20,"test_coda",463039,270,"coda_syllable",NA,"AH","LEFT",1,6,16,0.375,5.43284658373896,NA,0.9,0.630434782608696
"306",47,"AHB_AHP_3_07","coda-onset",NA,"b_group",83,14,3,960,7,"test_coda",464997,271,"coda_syllable",NA,"AH","LEFT",1,-7,14,-0.5,-7.56715341626104,NA,0.9,0.630434782608696
"307",47,"UHB_UHP_5_00","coda-onset",NA,"b_group",75,8,2,920,0,"test_coda",466931,272,"coda_syllable",NA,"UH","LEFT",0,-8,8,-1,-14.567153416261,NA,0.9,0.630434782608696
"308",47,"AHB_AHP_3_07","coda-onset",NA,"b_group",75,14,1,1299,7,"test_coda",479262,275,"coda_syllable",NA,"AH","LEFT",0,-7,14,-0.5,-7.56715341626104,NA,0.9,0.630434782608696
"309",47,"UHB_UHP_5_16","coda-onset",NA,"b_group",83,8,3,981,16,"test_coda",481241,276,"coda_syllable",NA,"UH","LEFT",1,8,22,0.363636363636364,1.43284658373896,NA,0.9,0.630434782608696
"310",47,"UHB_UHP_5_20","coda-onset",NA,"b_group",83,8,1,1539,20,"test_coda",483784,277,"coda_syllable",NA,"UH","LEFT",1,12,22,0.545454545454545,5.43284658373896,NA,0.9,0.630434782608696
"311",47,"IHB_IHP_5_30","coda-onset",NA,"b_group",83,7,1,1437,30,"test_coda",486214,278,"coda_syllable",NA,"IH","LEFT",1,23,23,1,15.432846583739,NA,0.9,0.630434782608696
"312",47,"IHB_IHP_5_25","coda-onset",NA,"b_group",83,7,1,1301,25,"test_coda",488531,279,"coda_syllable",NA,"IH","LEFT",1,18,23,0.782608695652174,10.432846583739,NA,0.9,0.630434782608696
"313",47,"AHB_AHP_3_13","coda-onset",NA,"b_group",83,14,2,1317,13,"test_coda",490854,280,"coda_syllable",NA,"AH","LEFT",1,-1,14,-0.0714285714285714,-1.56715341626104,NA,0.9,0.630434782608696
"314",47,"AHB_AHP_3_25","coda-onset",NA,"b_group",75,14,3,1080,25,"test_coda",492940,281,"coda_syllable",NA,"AH","LEFT",0,11,16,0.6875,10.432846583739,NA,0.9,0.630434782608696
"315",47,"AAB_AAP_1_00","coda-onset",NA,"b_group",83,11,2,800,0,"test_coda",494741,282,"coda_syllable",NA,"AA","LEFT",1,-11,11,-1,-14.567153416261,NA,0.9,0.630434782608696
"316",47,"IHB_IHP_5_04","coda-onset",NA,"b_group",83,7,2,1421,4,"test_coda",497170,283,"coda_syllable",NA,"IH","LEFT",1,-3,7,-0.428571428571429,-10.567153416261,NA,0.9,0.630434782608696
"317",47,"AHB_AHP_3_16","coda-onset",NA,"b_group",83,14,1,2000,16,"test_coda",500188,284,"coda_syllable",NA,"AH","LEFT",1,2,16,0.125,1.43284658373896,NA,0.9,0.630434782608696
"318",47,"AHB_AHP_3_20","coda-onset",NA,"b_group",83,14,2,680,20,"test_coda",501873,285,"coda_syllable",NA,"AH","LEFT",1,6,16,0.375,5.43284658373896,NA,0.9,0.630434782608696
"319",47,"UHB_UHP_5_09","coda-onset",NA,"b_group",83,8,1,1400,9,"test_coda",504282,286,"coda_syllable",NA,"UH","LEFT",1,1,22,0.0454545454545455,-5.56715341626104,NA,0.9,0.630434782608696
"320",47,"UHB_UHP_5_25","coda-onset",NA,"b_group",83,8,2,1579,25,"test_coda",506869,287,"coda_syllable",NA,"UH","LEFT",1,17,22,0.772727272727273,10.432846583739,NA,0.9,0.630434782608696
"321",47,"AHB_AHP_3_13","coda-onset",NA,"b_group",83,14,3,1376,13,"test_coda",509253,288,"coda_syllable",NA,"AH","LEFT",1,-1,14,-0.0714285714285714,-1.56715341626104,NA,0.9,0.630434782608696
"322",47,"UHB_UHP_5_04","coda-onset",NA,"b_group",83,8,2,661,4,"test_coda",510921,289,"coda_syllable",NA,"UH","LEFT",1,-4,8,-0.5,-10.567153416261,NA,0.9,0.630434782608696
"323",47,"AHB_AHP_3_25","coda-onset",NA,"b_group",83,14,2,1400,25,"test_coda",513328,290,"coda_syllable",NA,"AH","LEFT",1,11,16,0.6875,10.432846583739,NA,0.9,0.630434782608696
"324",47,"AAB_AAP_1_20","coda-onset",NA,"b_group",83,11,2,859,20,"test_coda",515193,291,"coda_syllable",NA,"AA","LEFT",1,9,19,0.473684210526316,5.43284658373896,NA,0.9,0.630434782608696
"325",47,"IHB_IHP_5_09","coda-onset",NA,"b_group",83,7,2,1475,9,"test_coda",517675,292,"coda_syllable",NA,"IH","LEFT",1,2,23,0.0869565217391304,-5.56715341626104,NA,0.9,0.630434782608696
"326",47,"AHB_AHP_3_20","coda-onset",NA,"b_group",83,14,3,1080,20,"test_coda",519760,293,"coda_syllable",NA,"AH","LEFT",1,6,16,0.375,5.43284658373896,NA,0.9,0.630434782608696
"327",47,"AAB_AAP_1_11","coda-onset",NA,"b_group",83,11,3,1040,11,"test_coda",521809,294,"coda_syllable",NA,"AA","LEFT",1,0,11,0,-3.56715341626104,NA,0.9,0.630434782608696
"328",47,"AAB_AAP_1_04","coda-onset",NA,"b_group",75,11,2,1160,4,"test_coda",523990,295,"coda_syllable",NA,"AA","LEFT",0,-7,11,-0.636363636363636,-10.567153416261,NA,0.9,0.630434782608696
"329",47,"UHB_UHP_5_25","coda-onset",NA,"b_group",83,8,3,776,25,"test_coda",525772,296,"coda_syllable",NA,"UH","LEFT",1,17,22,0.772727272727273,10.432846583739,NA,0.9,0.630434782608696
"330",47,"AHB_AHP_3_25","coda-onset",NA,"b_group",83,14,1,1621,25,"test_coda",528400,297,"coda_syllable",NA,"AH","LEFT",1,11,16,0.6875,10.432846583739,NA,0.9,0.630434782608696
"331",47,"AAB_AAP_1_13","coda-onset",NA,"b_group",75,11,1,915,13,"test_coda",530315,298,"coda_syllable",NA,"AA","LEFT",0,2,19,0.105263157894737,-1.56715341626104,NA,0.9,0.630434782608696
"332",47,"UHB_UHP_5_09","coda-onset",NA,"b_group",83,8,3,1176,9,"test_coda",532495,299,"coda_syllable",NA,"UH","LEFT",1,1,22,0.0454545454545455,-5.56715341626104,NA,0.9,0.630434782608696
"333",47,"AAB_AAP_1_30","coda-onset",NA,"b_group",75,11,2,1117,30,"test_coda",534613,300,"coda_syllable",NA,"AA","LEFT",0,19,19,1,15.432846583739,NA,0.9,0.630434782608696
"334",47,"IHB_IHP_5_11","coda-onset",NA,"b_group",75,7,1,920,11,"test_coda",536543,301,"coda_syllable",NA,"IH","LEFT",0,4,23,0.173913043478261,-3.56715341626104,NA,0.9,0.630434782608696
"335",47,"IHB_IHP_5_16","coda-onset",NA,"b_group",75,7,1,880,16,"test_coda",538436,302,"coda_syllable",NA,"IH","LEFT",0,9,23,0.391304347826087,1.43284658373896,NA,0.9,0.630434782608696
"336",47,"UHB_UHP_5_00","coda-onset",NA,"b_group",75,8,1,1019,0,"test_coda",540461,303,"coda_syllable",NA,"UH","LEFT",0,-8,8,-1,-14.567153416261,NA,0.9,0.630434782608696
"337",47,"AAB_AAP_1_25","coda-onset",NA,"b_group",75,11,2,2168,25,"test_coda",563680,308,"coda_syllable",NA,"AA","LEFT",0,14,19,0.736842105263158,10.432846583739,NA,0.9,0.630434782608696
"338",47,"AAB_AAP_1_00","coda-onset",NA,"b_group",83,11,1,1360,0,"test_coda",566043,309,"coda_syllable",NA,"AA","LEFT",1,-11,11,-1,-14.567153416261,NA,0.9,0.630434782608696
"339",47,"IHB_IHP_5_20","coda-onset",NA,"b_group",83,7,2,1435,20,"test_coda",568474,310,"coda_syllable",NA,"IH","LEFT",1,13,23,0.565217391304348,5.43284658373896,NA,0.9,0.630434782608696
"340",47,"AAB_AAP_1_07","coda-onset",NA,"b_group",83,11,3,1019,7,"test_coda",570498,311,"coda_syllable",NA,"AA","LEFT",1,-4,11,-0.363636363636364,-7.56715341626104,NA,0.9,0.630434782608696
"341",47,"IHB_IHP_5_25","coda-onset",NA,"b_group",75,7,2,800,25,"test_coda",572296,312,"coda_syllable",NA,"IH","LEFT",0,18,23,0.782608695652174,10.432846583739,NA,0.9,0.630434782608696
"342",47,"AAB_AAP_1_13","coda-onset",NA,"b_group",83,11,2,1837,13,"test_coda",575135,313,"coda_syllable",NA,"AA","LEFT",1,2,19,0.105263157894737,-1.56715341626104,NA,0.9,0.630434782608696
"343",47,"IHB_IHP_5_00","coda-onset",NA,"b_group",83,7,2,1040,0,"test_coda",577180,314,"coda_syllable",NA,"IH","LEFT",1,-7,7,-1,-14.567153416261,NA,0.9,0.630434782608696
"344",47,"IHB_IHP_5_11","coda-onset",NA,"b_group",83,7,2,2448,11,"test_coda",606112,320,"coda_syllable",NA,"IH","LEFT",1,4,23,0.173913043478261,-3.56715341626104,NA,0.9,0.630434782608696
"345",47,"AHB_AHP_3_04","coda-onset",NA,"b_group",75,14,3,899,4,"test_coda",608025,321,"coda_syllable",NA,"AH","LEFT",0,-10,14,-0.714285714285714,-10.567153416261,NA,0.9,0.630434782608696
"346",47,"UHB_UHP_5_30","coda-onset",NA,"b_group",83,8,3,821,30,"test_coda",609852,322,"coda_syllable",NA,"UH","LEFT",1,22,22,1,15.432846583739,NA,0.9,0.630434782608696
"347",47,"AAB_AAP_1_20","coda-onset",NA,"b_group",83,11,1,861,20,"test_coda",611718,323,"coda_syllable",NA,"AA","LEFT",1,9,19,0.473684210526316,5.43284658373896,NA,0.9,0.630434782608696
"348",47,"BAH_PAH_3_30","coda-onset",NA,"b_group",75,23,1,2584,30,"test_onset",694652,325,"onset_syllable",NA,"AH","LEFT",0,7,7,1,15.432846583739,NA,0.9,0.630434782608696
"349",47,"BAA_PAA_3_30","coda-onset",NA,"b_group",75,25,2,1560,30,"test_onset",697220,326,"onset_syllable",NA,"AA","LEFT",0,5,5,1,15.432846583739,NA,0.9,0.630434782608696
"350",47,"BAH_PAH_3_22","coda-onset",NA,"b_group",83,23,1,1040,22,"test_onset",699265,327,"onset_syllable",NA,"AH","LEFT",1,-1,23,-0.0434782608695652,7.43284658373896,NA,0.9,0.630434782608696
"351",47,"BAA_PAA_3_22","coda-onset",NA,"b_group",83,25,1,1379,22,"test_onset",701652,328,"onset_syllable",NA,"AA","LEFT",1,-3,25,-0.12,7.43284658373896,NA,0.9,0.630434782608696
"352",47,"BUH_PUH_3_30","coda-onset",NA,"b_group",83,21,2,1021,30,"test_onset",703676,329,"onset_syllable",NA,"UH","LEFT",1,9,9,1,15.432846583739,NA,0.9,0.630434782608696
"353",47,"BAH_PAH_3_20","coda-onset",NA,"b_group",75,23,1,840,20,"test_onset",705522,330,"onset_syllable",NA,"AH","LEFT",0,-3,23,-0.130434782608696,5.43284658373896,NA,0.9,0.630434782608696
"354",47,"BUH_PUH_3_10","coda-onset",NA,"b_group",75,21,1,840,10,"test_onset",707367,331,"onset_syllable",NA,"UH","LEFT",0,-11,21,-0.523809523809524,-4.56715341626104,NA,0.9,0.630434782608696
"355",47,"BAA_PAA_3_24","coda-onset",NA,"b_group",83,25,1,861,24,"test_onset",709233,332,"onset_syllable",NA,"AA","LEFT",1,-1,25,-0.04,9.43284658373896,NA,0.9,0.630434782608696
"356",47,"BAH_PAH_3_10","coda-onset",NA,"b_group",75,23,3,659,10,"test_onset",710897,333,"onset_syllable",NA,"AH","LEFT",0,-13,23,-0.565217391304348,-4.56715341626104,NA,0.9,0.630434782608696
"357",47,"BAH_PAH_3_27","coda-onset",NA,"b_group",83,23,3,560,27,"test_onset",712452,334,"onset_syllable",NA,"AH","LEFT",1,4,7,0.571428571428571,12.432846583739,NA,0.9,0.630434782608696
"358",47,"BIH_PIH_1_10","coda-onset",NA,"b_group",75,16,3,1296,10,"test_onset",714747,335,"onset_syllable",NA,"IH","LEFT",0,-6,16,-0.375,-4.56715341626104,NA,0.9,0.630434782608696
"359",47,"BAA_PAA_3_24","coda-onset",NA,"b_group",83,25,3,1280,24,"test_onset",717041,336,"onset_syllable",NA,"AA","LEFT",1,-1,25,-0.04,9.43284658373896,NA,0.9,0.630434782608696
"360",47,"BAA_PAA_3_15","coda-onset",NA,"b_group",83,25,1,837,15,"test_onset",718886,337,"onset_syllable",NA,"AA","LEFT",1,-10,25,-0.4,0.432846583738957,NA,0.9,0.630434782608696
"361",47,"BAH_PAH_3_05","coda-onset",NA,"b_group",75,23,1,661,5,"test_onset",720551,338,"onset_syllable",NA,"AH","LEFT",0,-18,23,-0.782608695652174,-9.56715341626104,NA,0.9,0.630434782608696
"362",47,"BAA_PAA_3_00","coda-onset",NA,"b_group",75,25,2,699,0,"test_onset",722261,339,"onset_syllable",NA,"AA","LEFT",0,-25,25,-1,-14.567153416261,NA,0.9,0.630434782608696
"363",47,"BAA_PAA_3_20","coda-onset",NA,"b_group",75,25,1,1040,20,"test_onset",724308,340,"onset_syllable",NA,"AA","LEFT",0,-5,25,-0.2,5.43284658373896,NA,0.9,0.630434782608696
"364",47,"BAA_PAA_3_15","coda-onset",NA,"b_group",75,25,3,1000,15,"test_onset",726312,341,"onset_syllable",NA,"AA","LEFT",0,-10,25,-0.4,0.432846583738957,NA,0.9,0.630434782608696
"365",47,"BIH_PIH_1_10","coda-onset",NA,"b_group",75,16,1,1280,10,"test_onset",728603,342,"onset_syllable",NA,"IH","LEFT",0,-6,16,-0.375,-4.56715341626104,NA,0.9,0.630434782608696
"366",47,"BIH_PIH_1_27","coda-onset",NA,"b_group",75,16,2,1221,27,"test_onset",730833,343,"onset_syllable",NA,"IH","LEFT",0,11,14,0.785714285714286,12.432846583739,NA,0.9,0.630434782608696
"367",47,"BUH_PUH_3_27","coda-onset",NA,"b_group",83,21,2,696,27,"test_onset",732527,344,"onset_syllable",NA,"UH","LEFT",1,6,9,0.666666666666667,12.432846583739,NA,0.9,0.630434782608696
"368",47,"BIH_PIH_1_24","coda-onset",NA,"b_group",83,16,2,1621,24,"test_onset",735154,345,"onset_syllable",NA,"IH","LEFT",1,8,14,0.571428571428571,9.43284658373896,NA,0.9,0.630434782608696
"369",47,"BIH_PIH_1_00","coda-onset",NA,"b_group",75,16,3,800,0,"test_onset",736953,346,"onset_syllable",NA,"IH","LEFT",0,-16,16,-1,-14.567153416261,NA,0.9,0.630434782608696
"370",47,"BAH_PAH_3_27","coda-onset",NA,"b_group",83,23,2,840,27,"test_onset",738788,347,"onset_syllable",NA,"AH","LEFT",1,4,7,0.571428571428571,12.432846583739,NA,0.9,0.630434782608696
"371",47,"BAA_PAA_3_10","coda-onset",NA,"b_group",83,25,1,899,10,"test_onset",740690,348,"onset_syllable",NA,"AA","LEFT",1,-15,25,-0.6,-4.56715341626104,NA,0.9,0.630434782608696
"372",47,"BAA_PAA_3_27","coda-onset",NA,"b_group",83,25,3,957,27,"test_onset",742647,349,"onset_syllable",NA,"AA","LEFT",1,2,5,0.4,12.432846583739,NA,0.9,0.630434782608696
"373",47,"BUH_PUH_3_05","coda-onset",NA,"b_group",75,21,1,640,5,"test_onset",744289,350,"onset_syllable",NA,"UH","LEFT",0,-16,21,-0.761904761904762,-9.56715341626104,NA,0.9,0.630434782608696
"374",47,"BAH_PAH_3_27","coda-onset",NA,"b_group",83,23,1,861,27,"test_onset",746153,351,"onset_syllable",NA,"AH","LEFT",1,4,7,0.571428571428571,12.432846583739,NA,0.9,0.630434782608696
"375",47,"BIH_PIH_1_30","coda-onset",NA,"b_group",75,16,1,760,30,"test_onset",747910,352,"onset_syllable",NA,"IH","LEFT",0,14,14,1,15.432846583739,NA,0.9,0.630434782608696
"376",47,"BAH_PAH_3_15","coda-onset",NA,"b_group",83,23,3,936,15,"test_onset",749848,353,"onset_syllable",NA,"AH","LEFT",1,-8,23,-0.347826086956522,0.432846583738957,NA,0.9,0.630434782608696
"377",47,"BIH_PIH_1_20","coda-onset",NA,"b_group",83,16,2,797,20,"test_onset",751646,354,"onset_syllable",NA,"IH","LEFT",1,4,14,0.285714285714286,5.43284658373896,NA,0.9,0.630434782608696
"378",47,"BAA_PAA_3_00","coda-onset",NA,"b_group",83,25,3,1000,0,"test_onset",753649,355,"onset_syllable",NA,"AA","LEFT",1,-25,25,-1,-14.567153416261,NA,0.9,0.630434782608696
"379",47,"BIH_PIH_1_20","coda-onset",NA,"b_group",83,16,1,2597,20,"test_onset",757248,356,"onset_syllable",NA,"IH","LEFT",1,4,14,0.285714285714286,5.43284658373896,NA,0.9,0.630434782608696
"380",47,"BIH_PIH_1_10","coda-onset",NA,"b_group",75,16,2,1939,10,"test_onset",770208,359,"onset_syllable",NA,"IH","LEFT",0,-6,16,-0.375,-4.56715341626104,NA,0.9,0.630434782608696
"381",47,"BUH_PUH_3_10","coda-onset",NA,"b_group",75,21,2,1117,10,"test_onset",772324,360,"onset_syllable",NA,"UH","LEFT",0,-11,21,-0.523809523809524,-4.56715341626104,NA,0.9,0.630434782608696
"382",47,"BIH_PIH_1_15","coda-onset",NA,"b_group",75,16,3,901,15,"test_onset",774241,361,"onset_syllable",NA,"IH","LEFT",0,-1,16,-0.0625,0.432846583738957,NA,0.9,0.630434782608696
"383",47,"BAH_PAH_3_15","coda-onset",NA,"b_group",75,23,2,1320,15,"test_onset",776576,362,"onset_syllable",NA,"AH","LEFT",0,-8,23,-0.347826086956522,0.432846583738957,NA,0.9,0.630434782608696
"384",47,"BIH_PIH_1_05","coda-onset",NA,"b_group",75,16,3,891,5,"test_onset",778467,363,"onset_syllable",NA,"IH","LEFT",0,-11,16,-0.6875,-9.56715341626104,NA,0.9,0.630434782608696
"385",47,"BAH_PAH_3_24","coda-onset",NA,"b_group",75,23,2,3939,24,"test_onset",783416,364,"onset_syllable",NA,"AH","LEFT",0,1,7,0.142857142857143,9.43284658373896,NA,0.9,0.630434782608696
"386",47,"BAA_PAA_3_18","coda-onset",NA,"b_group",83,25,1,1541,18,"test_onset",785959,365,"onset_syllable",NA,"AA","LEFT",1,-7,25,-0.28,3.43284658373896,NA,0.9,0.630434782608696
"387",47,"BAA_PAA_3_30","coda-onset",NA,"b_group",83,25,1,923,30,"test_onset",787892,366,"onset_syllable",NA,"AA","LEFT",1,5,5,1,15.432846583739,NA,0.9,0.630434782608696
"388",47,"BAH_PAH_3_30","coda-onset",NA,"b_group",83,23,2,760,30,"test_onset",789653,367,"onset_syllable",NA,"AH","LEFT",1,7,7,1,15.432846583739,NA,0.9,0.630434782608696
"389",47,"BUH_PUH_3_20","coda-onset",NA,"b_group",83,21,1,827,20,"test_onset",791492,368,"onset_syllable",NA,"UH","LEFT",1,-1,21,-0.0476190476190476,5.43284658373896,NA,0.9,0.630434782608696
"390",47,"BUH_PUH_3_30","coda-onset",NA,"b_group",83,21,1,536,30,"test_onset",793025,369,"onset_syllable",NA,"UH","LEFT",1,9,9,1,15.432846583739,NA,0.9,0.630434782608696
"391",47,"BUH_PUH_3_10","coda-onset",NA,"b_group",75,21,3,680,10,"test_onset",794710,370,"onset_syllable",NA,"UH","LEFT",0,-11,21,-0.523809523809524,-4.56715341626104,NA,0.9,0.630434782608696
"392",47,"BUH_PUH_3_15","coda-onset",NA,"b_group",83,21,3,520,15,"test_onset",796241,371,"onset_syllable",NA,"UH","LEFT",1,-6,21,-0.285714285714286,0.432846583738957,NA,0.9,0.630434782608696
"393",47,"BAH_PAH_3_05","coda-onset",NA,"b_group",75,23,2,813,5,"test_onset",798064,372,"onset_syllable",NA,"AH","LEFT",0,-18,23,-0.782608695652174,-9.56715341626104,NA,0.9,0.630434782608696
"394",47,"BIH_PIH_1_22","coda-onset",NA,"b_group",75,16,3,1155,22,"test_onset",800224,373,"onset_syllable",NA,"IH","LEFT",0,6,14,0.428571428571429,7.43284658373896,NA,0.9,0.630434782608696
"395",47,"BIH_PIH_1_24","coda-onset",NA,"b_group",83,16,1,1019,24,"test_onset",802249,374,"onset_syllable",NA,"IH","LEFT",1,8,14,0.571428571428571,9.43284658373896,NA,0.9,0.630434782608696
"396",47,"BUH_PUH_3_27","coda-onset",NA,"b_group",83,21,1,800,27,"test_onset",804049,375,"onset_syllable",NA,"UH","LEFT",1,6,9,0.666666666666667,12.432846583739,NA,0.9,0.630434782608696
"397",47,"BIH_PIH_1_24","coda-onset",NA,"b_group",83,16,3,861,24,"test_onset",805915,376,"onset_syllable",NA,"IH","LEFT",1,8,14,0.571428571428571,9.43284658373896,NA,0.9,0.630434782608696
"398",47,"BAH_PAH_3_30","coda-onset",NA,"b_group",83,23,3,880,30,"test_onset",807787,377,"onset_syllable",NA,"AH","LEFT",1,7,7,1,15.432846583739,NA,0.9,0.630434782608696
"399",47,"BUH_PUH_3_00","coda-onset",NA,"b_group",75,21,3,1339,0,"test_onset",815141,379,"onset_syllable",NA,"UH","LEFT",0,-21,21,-1,-14.567153416261,NA,0.9,0.630434782608696
"400",47,"BUH_PUH_3_20","coda-onset",NA,"b_group",83,21,3,1139,20,"test_onset",817302,380,"onset_syllable",NA,"UH","LEFT",1,-1,21,-0.0476190476190476,5.43284658373896,NA,0.9,0.630434782608696
"401",47,"BAH_PAH_3_20","coda-onset",NA,"b_group",83,23,2,1035,20,"test_onset",819346,381,"onset_syllable",NA,"AH","LEFT",1,-3,23,-0.130434782608696,5.43284658373896,NA,0.9,0.630434782608696
"402",47,"BAA_PAA_3_10","coda-onset",NA,"b_group",75,25,2,1059,10,"test_onset",821419,382,"onset_syllable",NA,"AA","LEFT",0,-15,25,-0.6,-4.56715341626104,NA,0.9,0.630434782608696
"403",47,"BIH_PIH_1_00","coda-onset",NA,"b_group",75,16,1,904,0,"test_onset",823331,383,"onset_syllable",NA,"IH","LEFT",0,-16,16,-1,-14.567153416261,NA,0.9,0.630434782608696
"404",47,"BIH_PIH_1_22","coda-onset",NA,"b_group",75,16,1,941,22,"test_onset",825286,384,"onset_syllable",NA,"IH","LEFT",0,6,14,0.428571428571429,7.43284658373896,NA,0.9,0.630434782608696
"405",47,"BAA_PAA_3_20","coda-onset",NA,"b_group",75,25,3,1520,20,"test_onset",827808,385,"onset_syllable",NA,"AA","LEFT",0,-5,25,-0.2,5.43284658373896,NA,0.9,0.630434782608696
"406",47,"BIH_PIH_1_18","coda-onset",NA,"b_group",75,16,1,1384,18,"test_onset",835211,387,"onset_syllable",NA,"IH","LEFT",0,2,14,0.142857142857143,3.43284658373896,NA,0.9,0.630434782608696
"407",47,"BAH_PAH_3_00","coda-onset",NA,"b_group",75,23,3,1477,0,"test_onset",837686,388,"onset_syllable",NA,"AH","LEFT",0,-23,23,-1,-14.567153416261,NA,0.9,0.630434782608696
"408",47,"BIH_PIH_1_05","coda-onset",NA,"b_group",75,16,2,1221,5,"test_onset",839912,389,"onset_syllable",NA,"IH","LEFT",0,-11,16,-0.6875,-9.56715341626104,NA,0.9,0.630434782608696
"409",47,"BUH_PUH_3_22","coda-onset",NA,"b_group",83,21,2,939,22,"test_onset",846863,391,"onset_syllable",NA,"UH","LEFT",1,1,9,0.111111111111111,7.43284658373896,NA,0.9,0.630434782608696
"410",47,"BIH_PIH_1_27","coda-onset",NA,"b_group",83,16,1,680,27,"test_onset",848554,392,"onset_syllable",NA,"IH","LEFT",1,11,14,0.785714285714286,12.432846583739,NA,0.9,0.630434782608696
"411",47,"BAA_PAA_3_15","coda-onset",NA,"b_group",83,25,2,696,15,"test_onset",850244,393,"onset_syllable",NA,"AA","LEFT",1,-10,25,-0.4,0.432846583738957,NA,0.9,0.630434782608696
"412",47,"BUH_PUH_3_20","coda-onset",NA,"b_group",83,21,2,837,20,"test_onset",852087,394,"onset_syllable",NA,"UH","LEFT",1,-1,21,-0.0476190476190476,5.43284658373896,NA,0.9,0.630434782608696
"413",47,"BIH_PIH_1_05","coda-onset",NA,"b_group",75,16,1,861,5,"test_onset",853953,395,"onset_syllable",NA,"IH","LEFT",0,-11,16,-0.6875,-9.56715341626104,NA,0.9,0.630434782608696
"414",47,"BUH_PUH_3_18","coda-onset",NA,"b_group",83,21,2,680,18,"test_onset",855641,396,"onset_syllable",NA,"UH","LEFT",1,-3,21,-0.142857142857143,3.43284658373896,NA,0.9,0.630434782608696
"415",47,"BAA_PAA_3_24","coda-onset",NA,"b_group",83,25,2,941,24,"test_onset",857598,397,"onset_syllable",NA,"AA","LEFT",1,-1,25,-0.04,9.43284658373896,NA,0.9,0.630434782608696
"416",47,"BAH_PAH_3_10","coda-onset",NA,"b_group",83,23,1,1219,10,"test_onset",859826,398,"onset_syllable",NA,"AH","LEFT",1,-13,23,-0.565217391304348,-4.56715341626104,NA,0.9,0.630434782608696
"417",47,"BIH_PIH_1_15","coda-onset",NA,"b_group",75,16,2,1200,15,"test_onset",862031,399,"onset_syllable",NA,"IH","LEFT",0,-1,16,-0.0625,0.432846583738957,NA,0.9,0.630434782608696
"418",47,"BIH_PIH_1_30","coda-onset",NA,"b_group",83,16,3,640,30,"test_onset",863673,400,"onset_syllable",NA,"IH","LEFT",1,14,14,1,15.432846583739,NA,0.9,0.630434782608696
"419",47,"BAA_PAA_3_20","coda-onset",NA,"b_group",83,25,2,915,20,"test_onset",865586,401,"onset_syllable",NA,"AA","LEFT",1,-5,25,-0.2,5.43284658373896,NA,0.9,0.630434782608696
"420",47,"BUH_PUH_3_24","coda-onset",NA,"b_group",75,21,3,1019,24,"test_onset",867610,402,"onset_syllable",NA,"UH","LEFT",0,3,9,0.333333333333333,9.43284658373896,NA,0.9,0.630434782608696
"421",47,"BAH_PAH_3_15","coda-onset",NA,"b_group",83,23,1,2080,15,"test_onset",875709,404,"onset_syllable",NA,"AH","LEFT",1,-8,23,-0.347826086956522,0.432846583738957,NA,0.9,0.630434782608696
"422",47,"BAA_PAA_3_05","coda-onset",NA,"b_group",75,25,3,1019,5,"test_onset",877736,405,"onset_syllable",NA,"AA","LEFT",0,-20,25,-0.8,-9.56715341626104,NA,0.9,0.630434782608696
"423",47,"BUH_PUH_3_05","coda-onset",NA,"b_group",75,21,2,861,5,"test_onset",879606,406,"onset_syllable",NA,"UH","LEFT",0,-16,21,-0.761904761904762,-9.56715341626104,NA,0.9,0.630434782608696
"424",47,"BAA_PAA_3_10","coda-onset",NA,"b_group",75,25,3,1021,10,"test_onset",881625,407,"onset_syllable",NA,"AA","LEFT",0,-15,25,-0.6,-4.56715341626104,NA,0.9,0.630434782608696
"425",47,"BIH_PIH_1_00","coda-onset",NA,"b_group",75,16,2,699,0,"test_onset",883337,408,"onset_syllable",NA,"IH","LEFT",0,-16,16,-1,-14.567153416261,NA,0.9,0.630434782608696
"426",47,"BAH_PAH_3_24","coda-onset",NA,"b_group",83,23,1,1144,24,"test_onset",885497,409,"onset_syllable",NA,"AH","LEFT",1,1,7,0.142857142857143,9.43284658373896,NA,0.9,0.630434782608696
"427",47,"BIH_PIH_1_20","coda-onset",NA,"b_group",83,16,3,1459,20,"test_onset",887974,410,"onset_syllable",NA,"IH","LEFT",1,4,14,0.285714285714286,5.43284658373896,NA,0.9,0.630434782608696
"428",47,"BAH_PAH_3_18","coda-onset",NA,"b_group",83,23,3,787,18,"test_onset",889776,411,"onset_syllable",NA,"AH","LEFT",1,-5,23,-0.217391304347826,3.43284658373896,NA,0.9,0.630434782608696
"429",47,"BUH_PUH_3_30","coda-onset",NA,"b_group",83,21,3,680,30,"test_onset",891464,412,"onset_syllable",NA,"UH","LEFT",1,9,9,1,15.432846583739,NA,0.9,0.630434782608696
"430",47,"BAH_PAH_3_00","coda-onset",NA,"b_group",83,23,1,1144,0,"test_onset",893621,413,"onset_syllable",NA,"AH","LEFT",1,-23,23,-1,-14.567153416261,NA,0.9,0.630434782608696
"431",47,"BAH_PAH_3_10","coda-onset",NA,"b_group",83,23,2,760,10,"test_onset",895399,414,"onset_syllable",NA,"AH","LEFT",1,-13,23,-0.565217391304348,-4.56715341626104,NA,0.9,0.630434782608696
"432",47,"BUH_PUH_3_24","coda-onset",NA,"b_group",83,21,1,760,24,"test_onset",897176,415,"onset_syllable",NA,"UH","LEFT",1,3,9,0.333333333333333,9.43284658373896,NA,0.9,0.630434782608696
"433",47,"BAA_PAA_3_27","coda-onset",NA,"b_group",75,25,2,904,27,"test_onset",899089,416,"onset_syllable",NA,"AA","LEFT",0,2,5,0.4,12.432846583739,NA,0.9,0.630434782608696
"434",47,"BAA_PAA_3_18","coda-onset",NA,"b_group",75,25,3,1181,18,"test_onset",901272,417,"onset_syllable",NA,"AA","LEFT",0,-7,25,-0.28,3.43284658373896,NA,0.9,0.630434782608696
"435",47,"BUH_PUH_3_05","coda-onset",NA,"b_group",75,21,3,819,5,"test_onset",903092,418,"onset_syllable",NA,"UH","LEFT",0,-16,21,-0.761904761904762,-9.56715341626104,NA,0.9,0.630434782608696
"436",47,"BAH_PAH_3_18","coda-onset",NA,"b_group",75,23,2,896,18,"test_onset",904984,419,"onset_syllable",NA,"AH","LEFT",0,-5,23,-0.217391304347826,3.43284658373896,NA,0.9,0.630434782608696
"437",47,"BAA_PAA_3_22","coda-onset",NA,"b_group",83,25,3,1355,22,"test_onset",907349,420,"onset_syllable",NA,"AA","LEFT",1,-3,25,-0.12,7.43284658373896,NA,0.9,0.630434782608696
"438",47,"BIH_PIH_1_30","coda-onset",NA,"b_group",75,16,2,1184,30,"test_onset",919564,423,"onset_syllable",NA,"IH","LEFT",0,14,14,1,15.432846583739,NA,0.9,0.630434782608696
"439",47,"BAH_PAH_3_24","coda-onset",NA,"b_group",83,23,3,1336,24,"test_onset",921904,424,"onset_syllable",NA,"AH","LEFT",1,1,7,0.142857142857143,9.43284658373896,NA,0.9,0.630434782608696
"440",47,"BIH_PIH_1_18","coda-onset",NA,"b_group",75,16,2,2560,18,"test_onset",930479,426,"onset_syllable",NA,"IH","LEFT",0,2,14,0.142857142857143,3.43284658373896,NA,0.9,0.630434782608696
"441",47,"BUH_PUH_3_18","coda-onset",NA,"b_group",83,21,1,2384,18,"test_onset",933884,427,"onset_syllable",NA,"UH","LEFT",1,-3,21,-0.142857142857143,3.43284658373896,NA,0.9,0.630434782608696
"442",47,"BAH_PAH_3_22","coda-onset",NA,"b_group",83,23,2,800,22,"test_onset",935696,428,"onset_syllable",NA,"AH","LEFT",1,-1,23,-0.0434782608695652,7.43284658373896,NA,0.9,0.630434782608696
"443",47,"BIH_PIH_1_22","coda-onset",NA,"b_group",83,16,2,765,22,"test_onset",937473,429,"onset_syllable",NA,"IH","LEFT",1,6,14,0.428571428571429,7.43284658373896,NA,0.9,0.630434782608696
"444",47,"BAA_PAA_3_22","coda-onset",NA,"b_group",83,25,2,659,22,"test_onset",939137,430,"onset_syllable",NA,"AA","LEFT",1,-3,25,-0.12,7.43284658373896,NA,0.9,0.630434782608696
"445",47,"BIH_PIH_1_18","coda-onset",NA,"b_group",83,16,3,741,18,"test_onset",940872,431,"onset_syllable",NA,"IH","LEFT",1,2,14,0.142857142857143,3.43284658373896,NA,0.9,0.630434782608696
"446",47,"BUH_PUH_3_22","coda-onset",NA,"b_group",75,21,1,936,22,"test_onset",942809,432,"onset_syllable",NA,"UH","LEFT",0,1,9,0.111111111111111,7.43284658373896,NA,0.9,0.630434782608696
"447",47,"BAA_PAA_3_05","coda-onset",NA,"b_group",75,25,1,3280,5,"test_onset",952118,434,"onset_syllable",NA,"AA","LEFT",0,-20,25,-0.8,-9.56715341626104,NA,0.9,0.630434782608696
"448",47,"BAA_PAA_3_05","coda-onset",NA,"b_group",75,25,2,904,5,"test_onset",954034,435,"onset_syllable",NA,"AA","LEFT",0,-20,25,-0.8,-9.56715341626104,NA,0.9,0.630434782608696
"449",47,"BAH_PAH_3_00","coda-onset",NA,"b_group",83,23,2,619,0,"test_onset",955653,436,"onset_syllable",NA,"AH","LEFT",1,-23,23,-1,-14.567153416261,NA,0.9,0.630434782608696
"450",47,"BUH_PUH_3_24","coda-onset",NA,"b_group",75,21,2,1256,24,"test_onset",957906,437,"onset_syllable",NA,"UH","LEFT",0,3,9,0.333333333333333,9.43284658373896,NA,0.9,0.630434782608696
"451",47,"BUH_PUH_3_22","coda-onset",NA,"b_group",83,21,3,1147,22,"test_onset",960063,438,"onset_syllable",NA,"UH","LEFT",1,1,9,0.111111111111111,7.43284658373896,NA,0.9,0.630434782608696
"452",47,"BAA_PAA_3_00","coda-onset",NA,"b_group",83,25,1,1379,0,"test_onset",962449,439,"onset_syllable",NA,"AA","LEFT",1,-25,25,-1,-14.567153416261,NA,0.9,0.630434782608696
"453",47,"BAH_PAH_3_05","coda-onset",NA,"b_group",75,23,3,1525,5,"test_onset",970004,441,"onset_syllable",NA,"AH","LEFT",0,-18,23,-0.782608695652174,-9.56715341626104,NA,0.9,0.630434782608696
"454",47,"BUH_PUH_3_00","coda-onset",NA,"b_group",75,21,2,861,0,"test_onset",971853,442,"onset_syllable",NA,"UH","LEFT",0,-21,21,-1,-14.567153416261,NA,0.9,0.630434782608696
"455",47,"BAH_PAH_3_18","coda-onset",NA,"b_group",83,23,1,1000,18,"test_onset",973856,443,"onset_syllable",NA,"AH","LEFT",1,-5,23,-0.217391304347826,3.43284658373896,NA,0.9,0.630434782608696
"456",47,"BIH_PIH_1_15","coda-onset",NA,"b_group",83,16,1,899,15,"test_onset",975768,444,"onset_syllable",NA,"IH","LEFT",1,-1,16,-0.0625,0.432846583738957,NA,0.9,0.630434782608696
"457",30,"UHB_UHP_5_30","coda-onset",NA,"control",75,8,1,1995,30,"test_coda",354231,204,"coda_syllable",NA,"UH","RIGHT",1,22,22,1,15.432846583739,NA,0.9,0.708333333333333
"458",30,"UHB_UHP_5_13","coda-onset",NA,"control",75,8,2,715,13,"test_coda",355949,205,"coda_syllable",NA,"UH","RIGHT",1,5,22,0.227272727272727,-1.56715341626104,NA,0.9,0.708333333333333
"459",30,"AHB_AHP_3_30","coda-onset",NA,"control",83,14,2,875,30,"test_coda",357833,206,"coda_syllable",NA,"AH","RIGHT",0,16,16,1,15.432846583739,NA,0.9,0.708333333333333
"460",30,"AHB_AHP_3_04","coda-onset",NA,"control",83,14,3,587,4,"test_coda",359429,207,"coda_syllable",NA,"AH","RIGHT",0,-10,14,-0.714285714285714,-10.567153416261,NA,0.9,0.708333333333333
"461",30,"IHB_IHP_5_07","coda-onset",NA,"control",75,7,2,704,7,"test_coda",361135,208,"coda_syllable",NA,"IH","RIGHT",1,0,7,0,-7.56715341626104,NA,0.9,0.708333333333333
"462",30,"UHB_UHP_5_20","coda-onset",NA,"control",75,8,3,1163,20,"test_coda",363304,209,"coda_syllable",NA,"UH","RIGHT",1,12,22,0.545454545454545,5.43284658373896,NA,0.9,0.708333333333333
"463",30,"AHB_AHP_3_07","coda-onset",NA,"control",83,14,1,885,7,"test_coda",365200,210,"coda_syllable",NA,"AH","RIGHT",0,-7,14,-0.5,-7.56715341626104,NA,0.9,0.708333333333333
"464",30,"UHB_UHP_5_09","coda-onset",NA,"control",75,8,3,1205,9,"test_coda",367409,211,"coda_syllable",NA,"UH","RIGHT",1,1,22,0.0454545454545455,-5.56715341626104,NA,0.9,0.708333333333333
"465",30,"AAB_AAP_1_20","coda-onset",NA,"control",83,11,2,1301,20,"test_coda",369709,212,"coda_syllable",NA,"AA","RIGHT",0,9,19,0.473684210526316,5.43284658373896,NA,0.9,0.708333333333333
"466",30,"AHB_AHP_3_25","coda-onset",NA,"control",83,14,3,1440,25,"test_coda",372161,213,"coda_syllable",NA,"AH","RIGHT",0,11,16,0.6875,10.432846583739,NA,0.9,0.708333333333333
"467",30,"IHB_IHP_5_30","coda-onset",NA,"control",75,7,2,800,30,"test_coda",373975,214,"coda_syllable",NA,"IH","RIGHT",1,23,23,1,15.432846583739,NA,0.9,0.708333333333333
"468",30,"UHB_UHP_5_25","coda-onset",NA,"control",75,8,2,1099,25,"test_coda",376080,215,"coda_syllable",NA,"UH","RIGHT",1,17,22,0.772727272727273,10.432846583739,NA,0.9,0.708333333333333
"469",30,"IHB_IHP_5_25","coda-onset",NA,"control",75,7,2,1003,25,"test_coda",378102,216,"coda_syllable",NA,"IH","RIGHT",1,18,23,0.782608695652174,10.432846583739,NA,0.9,0.708333333333333
"470",30,"UHB_UHP_5_25","coda-onset",NA,"control",75,8,3,875,25,"test_coda",379990,217,"coda_syllable",NA,"UH","RIGHT",1,17,22,0.772727272727273,10.432846583739,NA,0.9,0.708333333333333
"471",30,"IHB_IHP_5_09","coda-onset",NA,"control",75,7,3,821,9,"test_coda",381826,218,"coda_syllable",NA,"IH","RIGHT",1,2,23,0.0869565217391304,-5.56715341626104,NA,0.9,0.708333333333333
"472",30,"UHB_UHP_5_07","coda-onset",NA,"control",75,8,3,949,7,"test_coda",383777,219,"coda_syllable",NA,"UH","RIGHT",1,-1,8,-0.125,-7.56715341626104,NA,0.9,0.708333333333333
"473",30,"AAB_AAP_1_09","coda-onset",NA,"control",83,11,3,704,9,"test_coda",385493,220,"coda_syllable",NA,"AA","RIGHT",0,-2,11,-0.181818181818182,-5.56715341626104,NA,0.9,0.708333333333333
"474",30,"AAB_AAP_1_11","coda-onset",NA,"control",83,11,3,1013,11,"test_coda",387517,221,"coda_syllable",NA,"AA","RIGHT",0,0,11,0,-3.56715341626104,NA,0.9,0.708333333333333
"475",30,"IHB_IHP_5_00","coda-onset",NA,"control",75,7,3,768,0,"test_coda",389289,222,"coda_syllable",NA,"IH","RIGHT",1,-7,7,-1,-14.567153416261,NA,0.9,0.708333333333333
"476",30,"UHB_UHP_5_00","coda-onset",NA,"control",75,8,3,917,0,"test_coda",391208,223,"coda_syllable",NA,"UH","RIGHT",1,-8,8,-1,-14.567153416261,NA,0.9,0.708333333333333
"477",30,"AAB_AAP_1_09","coda-onset",NA,"control",83,11,1,768,9,"test_coda",392991,224,"coda_syllable",NA,"AA","RIGHT",0,-2,11,-0.181818181818182,-5.56715341626104,NA,0.9,0.708333333333333
"478",30,"AAB_AAP_1_11","coda-onset",NA,"control",75,11,2,1259,11,"test_coda",395262,225,"coda_syllable",NA,"AA","RIGHT",1,0,11,0,-3.56715341626104,NA,0.9,0.708333333333333
"479",30,"IHB_IHP_5_25","coda-onset",NA,"control",75,7,3,1461,25,"test_coda",397740,226,"coda_syllable",NA,"IH","RIGHT",1,18,23,0.782608695652174,10.432846583739,NA,0.9,0.708333333333333
"480",30,"UHB_UHP_5_07","coda-onset",NA,"control",75,8,1,619,7,"test_coda",399375,227,"coda_syllable",NA,"UH","RIGHT",1,-1,8,-0.125,-7.56715341626104,NA,0.9,0.708333333333333
"481",30,"AHB_AHP_3_20","coda-onset",NA,"control",83,14,1,715,20,"test_coda",401101,228,"coda_syllable",NA,"AH","RIGHT",0,6,16,0.375,5.43284658373896,NA,0.9,0.708333333333333
"482",30,"UHB_UHP_5_04","coda-onset",NA,"control",75,8,1,875,4,"test_coda",402985,229,"coda_syllable",NA,"UH","RIGHT",1,-4,8,-0.5,-10.567153416261,NA,0.9,0.708333333333333
"483",30,"IHB_IHP_5_09","coda-onset",NA,"control",75,7,2,640,9,"test_coda",404636,230,"coda_syllable",NA,"IH","RIGHT",1,2,23,0.0869565217391304,-5.56715341626104,NA,0.9,0.708333333333333
"484",30,"AHB_AHP_3_30","coda-onset",NA,"control",83,14,3,907,30,"test_coda",406542,231,"coda_syllable",NA,"AH","RIGHT",0,16,16,1,15.432846583739,NA,0.9,0.708333333333333
"485",30,"IHB_IHP_5_00","coda-onset",NA,"control",75,7,1,608,0,"test_coda",408155,232,"coda_syllable",NA,"IH","RIGHT",1,-7,7,-1,-14.567153416261,NA,0.9,0.708333333333333
"486",30,"IHB_IHP_5_20","coda-onset",NA,"control",75,7,2,1227,20,"test_coda",410394,233,"coda_syllable",NA,"IH","RIGHT",1,13,23,0.565217391304348,5.43284658373896,NA,0.9,0.708333333333333
"487",30,"IHB_IHP_5_11","coda-onset",NA,"control",75,7,2,2784,11,"test_coda",414194,234,"coda_syllable",NA,"IH","RIGHT",1,4,23,0.173913043478261,-3.56715341626104,NA,0.9,0.708333333333333
"488",30,"AHB_AHP_3_09","coda-onset",NA,"control",83,14,1,704,9,"test_coda",415899,235,"coda_syllable",NA,"AH","RIGHT",0,-5,14,-0.357142857142857,-5.56715341626104,NA,0.9,0.708333333333333
"489",30,"AAB_AAP_1_04","coda-onset",NA,"control",83,11,1,683,4,"test_coda",417582,236,"coda_syllable",NA,"AA","RIGHT",0,-7,11,-0.636363636363636,-10.567153416261,NA,0.9,0.708333333333333
"490",30,"AHB_AHP_3_00","coda-onset",NA,"control",83,14,3,1035,0,"test_coda",419632,237,"coda_syllable",NA,"AH","RIGHT",0,-14,14,-1,-14.567153416261,NA,0.9,0.708333333333333
"491",30,"UHB_UHP_5_07","coda-onset",NA,"control",75,8,2,928,7,"test_coda",421579,238,"coda_syllable",NA,"UH","RIGHT",1,-1,8,-0.125,-7.56715341626104,NA,0.9,0.708333333333333
"492",30,"UHB_UHP_5_20","coda-onset",NA,"control",75,8,2,875,20,"test_coda",423468,239,"coda_syllable",NA,"UH","RIGHT",1,12,22,0.545454545454545,5.43284658373896,NA,0.9,0.708333333333333
"493",30,"IHB_IHP_5_13","coda-onset",NA,"control",75,7,1,725,13,"test_coda",425187,240,"coda_syllable",NA,"IH","RIGHT",1,6,23,0.260869565217391,-1.56715341626104,NA,0.9,0.708333333333333
"494",30,"AHB_AHP_3_30","coda-onset",NA,"control",83,14,1,907,30,"test_coda",427102,241,"coda_syllable",NA,"AH","RIGHT",0,16,16,1,15.432846583739,NA,0.9,0.708333333333333
"495",30,"AAB_AAP_1_30","coda-onset",NA,"control",83,11,2,896,30,"test_coda",429011,242,"coda_syllable",NA,"AA","RIGHT",0,19,19,1,15.432846583739,NA,0.9,0.708333333333333
"496",30,"IHB_IHP_5_07","coda-onset",NA,"control",75,7,3,907,7,"test_coda",430928,243,"coda_syllable",NA,"IH","RIGHT",1,0,7,0,-7.56715341626104,NA,0.9,0.708333333333333
"497",30,"AHB_AHP_3_16","coda-onset",NA,"control",83,14,1,1024,16,"test_coda",432956,244,"coda_syllable",NA,"AH","RIGHT",0,2,16,0.125,1.43284658373896,NA,0.9,0.708333333333333
"498",30,"IHB_IHP_5_00","coda-onset",NA,"control",75,7,2,907,0,"test_coda",434873,245,"coda_syllable",NA,"IH","RIGHT",1,-7,7,-1,-14.567153416261,NA,0.9,0.708333333333333
"499",30,"AAB_AAP_1_00","coda-onset",NA,"control",83,11,3,747,0,"test_coda",436628,246,"coda_syllable",NA,"AA","RIGHT",0,-11,11,-1,-14.567153416261,NA,0.9,0.708333333333333
"500",30,"AAB_AAP_1_07","coda-onset",NA,"control",83,11,3,992,7,"test_coda",438619,247,"coda_syllable",NA,"AA","RIGHT",0,-4,11,-0.363636363636364,-7.56715341626104,NA,0.9,0.708333333333333
"501",30,"AAB_AAP_1_16","coda-onset",NA,"control",83,11,2,1269,16,"test_coda",440893,248,"coda_syllable",NA,"AA","RIGHT",0,5,19,0.263157894736842,1.43284658373896,NA,0.9,0.708333333333333
"502",30,"UHB_UHP_5_16","coda-onset",NA,"control",75,8,1,736,16,"test_coda",442630,249,"coda_syllable",NA,"UH","RIGHT",1,8,22,0.363636363636364,1.43284658373896,NA,0.9,0.708333333333333
"503",30,"AAB_AAP_1_25","coda-onset",NA,"control",83,11,1,875,25,"test_coda",444517,250,"coda_syllable",NA,"AA","RIGHT",0,14,19,0.736842105263158,10.432846583739,NA,0.9,0.708333333333333
"504",30,"IHB_IHP_5_04","coda-onset",NA,"control",75,7,1,683,4,"test_coda",446215,251,"coda_syllable",NA,"IH","RIGHT",1,-3,7,-0.428571428571429,-10.567153416261,NA,0.9,0.708333333333333
"505",30,"AHB_AHP_3_16","coda-onset",NA,"control",75,14,3,768,16,"test_coda",447993,252,"coda_syllable",NA,"AH","RIGHT",1,2,16,0.125,1.43284658373896,NA,0.9,0.708333333333333
"506",30,"AAB_AAP_1_11","coda-onset",NA,"control",75,11,1,779,11,"test_coda",449777,253,"coda_syllable",NA,"AA","RIGHT",1,0,11,0,-3.56715341626104,NA,0.9,0.708333333333333
"507",30,"IHB_IHP_5_07","coda-onset",NA,"control",75,7,1,725,7,"test_coda",451513,254,"coda_syllable",NA,"IH","RIGHT",1,0,7,0,-7.56715341626104,NA,0.9,0.708333333333333
"508",30,"AHB_AHP_3_13","coda-onset",NA,"control",75,14,2,747,13,"test_coda",453274,255,"coda_syllable",NA,"AH","RIGHT",1,-1,14,-0.0714285714285714,-1.56715341626104,NA,0.9,0.708333333333333
"509",30,"AHB_AHP_3_20","coda-onset",NA,"control",75,14,3,1003,20,"test_coda",455277,256,"coda_syllable",NA,"AH","RIGHT",1,6,16,0.375,5.43284658373896,NA,0.9,0.708333333333333
"510",30,"UHB_UHP_5_04","coda-onset",NA,"control",75,8,2,896,4,"test_coda",457176,257,"coda_syllable",NA,"UH","RIGHT",1,-4,8,-0.5,-10.567153416261,NA,0.9,0.708333333333333
"511",30,"UHB_UHP_5_20","coda-onset",NA,"control",75,8,1,907,20,"test_coda",459098,258,"coda_syllable",NA,"UH","RIGHT",1,12,22,0.545454545454545,5.43284658373896,NA,0.9,0.708333333333333
"512",30,"UHB_UHP_5_04","coda-onset",NA,"control",75,8,3,896,4,"test_coda",461005,259,"coda_syllable",NA,"UH","RIGHT",1,-4,8,-0.5,-10.567153416261,NA,0.9,0.708333333333333
"513",30,"IHB_IHP_5_13","coda-onset",NA,"control",75,7,3,693,13,"test_coda",462708,260,"coda_syllable",NA,"IH","RIGHT",1,6,23,0.260869565217391,-1.56715341626104,NA,0.9,0.708333333333333
"514",30,"IHB_IHP_5_20","coda-onset",NA,"control",75,7,3,779,20,"test_coda",464492,261,"coda_syllable",NA,"IH","RIGHT",1,13,23,0.565217391304348,5.43284658373896,NA,0.9,0.708333333333333
"515",30,"UHB_UHP_5_00","coda-onset",NA,"control",83,8,2,864,0,"test_coda",466375,262,"coda_syllable",NA,"UH","RIGHT",0,-8,8,-1,-14.567153416261,NA,0.9,0.708333333333333
"516",30,"AAB_AAP_1_07","coda-onset",NA,"control",75,11,1,875,7,"test_coda",468259,263,"coda_syllable",NA,"AA","RIGHT",1,-4,11,-0.363636363636364,-7.56715341626104,NA,0.9,0.708333333333333
"517",30,"UHB_UHP_5_00","coda-onset",NA,"control",75,8,1,1088,0,"test_coda",470355,264,"coda_syllable",NA,"UH","RIGHT",1,-8,8,-1,-14.567153416261,NA,0.9,0.708333333333333
"518",30,"UHB_UHP_5_30","coda-onset",NA,"control",75,8,3,789,30,"test_coda",472147,265,"coda_syllable",NA,"UH","RIGHT",1,22,22,1,15.432846583739,NA,0.9,0.708333333333333
"519",30,"AAB_AAP_1_13","coda-onset",NA,"control",75,11,2,1120,13,"test_coda",474267,266,"coda_syllable",NA,"AA","RIGHT",1,2,19,0.105263157894737,-1.56715341626104,NA,0.9,0.708333333333333
"520",30,"AAB_AAP_1_04","coda-onset",NA,"control",83,11,2,896,4,"test_coda",476164,267,"coda_syllable",NA,"AA","RIGHT",0,-7,11,-0.636363636363636,-10.567153416261,NA,0.9,0.708333333333333
"521",30,"AHB_AHP_3_16","coda-onset",NA,"control",75,14,2,843,16,"test_coda",478009,268,"coda_syllable",NA,"AH","RIGHT",1,2,16,0.125,1.43284658373896,NA,0.9,0.708333333333333
"522",30,"AAB_AAP_1_00","coda-onset",NA,"control",83,11,1,725,0,"test_coda",479737,269,"coda_syllable",NA,"AA","RIGHT",0,-11,11,-1,-14.567153416261,NA,0.9,0.708333333333333
"523",30,"AHB_AHP_3_25","coda-onset",NA,"control",75,14,1,907,25,"test_coda",481660,270,"coda_syllable",NA,"AH","RIGHT",1,11,16,0.6875,10.432846583739,NA,0.9,0.708333333333333
"524",30,"IHB_IHP_5_11","coda-onset",NA,"control",83,7,3,640,11,"test_coda",483301,271,"coda_syllable",NA,"IH","RIGHT",0,4,23,0.173913043478261,-3.56715341626104,NA,0.9,0.708333333333333
"525",30,"AHB_AHP_3_20","coda-onset",NA,"control",75,14,2,725,20,"test_coda",485035,272,"coda_syllable",NA,"AH","RIGHT",1,6,16,0.375,5.43284658373896,NA,0.9,0.708333333333333
"526",30,"AAB_AAP_1_30","coda-onset",NA,"control",83,11,3,885,30,"test_coda",486927,273,"coda_syllable",NA,"AA","RIGHT",0,19,19,1,15.432846583739,NA,0.9,0.708333333333333
"527",30,"AHB_AHP_3_11","coda-onset",NA,"control",75,14,1,1163,11,"test_coda",489111,274,"coda_syllable",NA,"AH","RIGHT",1,-3,14,-0.214285714285714,-3.56715341626104,NA,0.9,0.708333333333333
"528",30,"AAB_AAP_1_20","coda-onset",NA,"control",75,11,1,1131,20,"test_coda",491253,275,"coda_syllable",NA,"AA","RIGHT",1,9,19,0.473684210526316,5.43284658373896,NA,0.9,0.708333333333333
"529",30,"AHB_AHP_3_11","coda-onset",NA,"control",75,14,3,757,11,"test_coda",493017,276,"coda_syllable",NA,"AH","RIGHT",1,-3,14,-0.214285714285714,-3.56715341626104,NA,0.9,0.708333333333333
"530",30,"IHB_IHP_5_25","coda-onset",NA,"control",83,7,1,661,25,"test_coda",494694,277,"coda_syllable",NA,"IH","RIGHT",0,18,23,0.782608695652174,10.432846583739,NA,0.9,0.708333333333333
"531",30,"AAB_AAP_1_13","coda-onset",NA,"control",75,11,3,1024,13,"test_coda",496738,278,"coda_syllable",NA,"AA","RIGHT",1,2,19,0.105263157894737,-1.56715341626104,NA,0.9,0.708333333333333
"532",30,"IHB_IHP_5_20","coda-onset",NA,"control",75,7,1,768,20,"test_coda",498519,279,"coda_syllable",NA,"IH","RIGHT",1,13,23,0.565217391304348,5.43284658373896,NA,0.9,0.708333333333333
"533",30,"UHB_UHP_5_11","coda-onset",NA,"control",75,8,2,939,11,"test_coda",500482,280,"coda_syllable",NA,"UH","RIGHT",1,3,22,0.136363636363636,-3.56715341626104,NA,0.9,0.708333333333333
"534",30,"AHB_AHP_3_09","coda-onset",NA,"control",75,14,3,715,9,"test_coda",502204,281,"coda_syllable",NA,"AH","RIGHT",1,-5,14,-0.357142857142857,-5.56715341626104,NA,0.9,0.708333333333333
"535",30,"AAB_AAP_1_04","coda-onset",NA,"control",75,11,3,715,4,"test_coda",503931,282,"coda_syllable",NA,"AA","RIGHT",1,-7,11,-0.636363636363636,-10.567153416261,NA,0.9,0.708333333333333
"536",30,"AAB_AAP_1_00","coda-onset",NA,"control",83,11,2,1013,0,"test_coda",505960,283,"coda_syllable",NA,"AA","RIGHT",0,-11,11,-1,-14.567153416261,NA,0.9,0.708333333333333
"537",30,"AAB_AAP_1_16","coda-onset",NA,"control",75,11,1,811,16,"test_coda",507786,284,"coda_syllable",NA,"AA","RIGHT",1,5,19,0.263157894736842,1.43284658373896,NA,0.9,0.708333333333333
"538",30,"UHB_UHP_5_13","coda-onset",NA,"control",75,8,1,960,13,"test_coda",509742,285,"coda_syllable",NA,"UH","RIGHT",1,5,22,0.227272727272727,-1.56715341626104,NA,0.9,0.708333333333333
"539",30,"AHB_AHP_3_11","coda-onset",NA,"control",83,14,2,949,11,"test_coda",511698,286,"coda_syllable",NA,"AH","RIGHT",0,-3,14,-0.214285714285714,-3.56715341626104,NA,0.9,0.708333333333333
"540",30,"UHB_UHP_5_11","coda-onset",NA,"control",75,8,3,736,11,"test_coda",513433,287,"coda_syllable",NA,"UH","RIGHT",1,3,22,0.136363636363636,-3.56715341626104,NA,0.9,0.708333333333333
"541",30,"AHB_AHP_3_25","coda-onset",NA,"control",83,14,2,1269,25,"test_coda",515704,288,"coda_syllable",NA,"AH","RIGHT",0,11,16,0.6875,10.432846583739,NA,0.9,0.708333333333333
"542",30,"UHB_UHP_5_13","coda-onset",NA,"control",75,8,3,1600,13,"test_coda",518309,289,"coda_syllable",NA,"UH","RIGHT",1,5,22,0.227272727272727,-1.56715341626104,NA,0.9,0.708333333333333
"543",30,"IHB_IHP_5_30","coda-onset",NA,"control",75,7,1,1675,30,"test_coda",520996,290,"coda_syllable",NA,"IH","RIGHT",1,23,23,1,15.432846583739,NA,0.9,0.708333333333333
"544",30,"IHB_IHP_5_04","coda-onset",NA,"control",75,7,3,853,4,"test_coda",522856,291,"coda_syllable",NA,"IH","RIGHT",1,-3,7,-0.428571428571429,-10.567153416261,NA,0.9,0.708333333333333
"545",30,"UHB_UHP_5_09","coda-onset",NA,"control",75,8,2,683,9,"test_coda",524537,292,"coda_syllable",NA,"UH","RIGHT",1,1,22,0.0454545454545455,-5.56715341626104,NA,0.9,0.708333333333333
"546",30,"AHB_AHP_3_13","coda-onset",NA,"control",75,14,1,992,13,"test_coda",526544,293,"coda_syllable",NA,"AH","RIGHT",1,-1,14,-0.0714285714285714,-1.56715341626104,NA,0.9,0.708333333333333
"547",30,"IHB_IHP_5_04","coda-onset",NA,"control",83,7,2,1013,4,"test_coda",528558,294,"coda_syllable",NA,"IH","RIGHT",0,-3,7,-0.428571428571429,-10.567153416261,NA,0.9,0.708333333333333
