"","workerid","audio","block_order","correct_response","group","key_press","normed_midpoint","repetition","rt","step","test_part","time_elapsed","trial_index","type","visual_target","vowel","yes_side","response_01","step_dist","side_length","norm_step","c_step","accurate","accuracy_exposure","accuracy_test"
"1",24,"UHB_UHP_5_00","coda-onset",NA,"control",75,8,2,2091,0,"test_coda",370648,204,"coda_syllable",NA,"UH","LEFT",0,-8,8,-1,-14.567153416261,NA,0.99,0.957446808510638
"2",24,"AAB_AAP_1_16","coda-onset",NA,"control",83,11,3,1835,16,"test_coda",373486,205,"coda_syllable",NA,"AA","LEFT",1,5,19,0.263157894736842,1.43284658373896,NA,0.99,0.957446808510638
"3",24,"IHB_IHP_5_07","coda-onset",NA,"control",75,7,1,1067,7,"test_coda",375551,206,"coda_syllable",NA,"IH","LEFT",0,0,7,0,-7.56715341626104,NA,0.99,0.957446808510638
"4",24,"AAB_AAP_1_09","coda-onset",NA,"control",83,11,2,1792,9,"test_coda",378349,207,"coda_syllable",NA,"AA","LEFT",1,-2,11,-0.181818181818182,-5.56715341626104,NA,0.99,0.957446808510638
"5",24,"AHB_AHP_3_16","coda-onset",NA,"control",75,14,2,1056,16,"test_coda",380405,208,"coda_syllable",NA,"AH","LEFT",0,2,16,0.125,1.43284658373896,NA,0.99,0.957446808510638
"6",24,"UHB_UHP_5_13","coda-onset",NA,"control",75,8,3,1483,13,"test_coda",382895,209,"coda_syllable",NA,"UH","LEFT",0,5,22,0.227272727272727,-1.56715341626104,NA,0.99,0.957446808510638
"7",24,"AAB_AAP_1_13","coda-onset",NA,"control",75,11,2,1163,13,"test_coda",385055,210,"coda_syllable",NA,"AA","LEFT",0,2,19,0.105263157894737,-1.56715341626104,NA,0.99,0.957446808510638
"8",24,"AAB_AAP_1_13","coda-onset",NA,"control",75,11,1,960,13,"test_coda",387017,211,"coda_syllable",NA,"AA","LEFT",0,2,19,0.105263157894737,-1.56715341626104,NA,0.99,0.957446808510638
"9",24,"AAB_AAP_1_16","coda-onset",NA,"control",75,11,1,1088,16,"test_coda",389116,212,"coda_syllable",NA,"AA","LEFT",0,5,19,0.263157894736842,1.43284658373896,NA,0.99,0.957446808510638
"10",24,"AHB_AHP_3_07","coda-onset",NA,"control",75,14,3,992,7,"test_coda",391109,213,"coda_syllable",NA,"AH","LEFT",0,-7,14,-0.5,-7.56715341626104,NA,0.99,0.957446808510638
"11",24,"IHB_IHP_5_30","coda-onset",NA,"control",83,7,3,1397,30,"test_coda",393507,214,"coda_syllable",NA,"IH","LEFT",1,23,23,1,15.432846583739,NA,0.99,0.957446808510638
"12",24,"AHB_AHP_3_30","coda-onset",NA,"control",83,14,3,1451,30,"test_coda",395956,215,"coda_syllable",NA,"AH","LEFT",1,16,16,1,15.432846583739,NA,0.99,0.957446808510638
"13",24,"AHB_AHP_3_09","coda-onset",NA,"control",75,14,3,949,9,"test_coda",397907,216,"coda_syllable",NA,"AH","LEFT",0,-5,14,-0.357142857142857,-5.56715341626104,NA,0.99,0.957446808510638
"14",24,"IHB_IHP_5_16","coda-onset",NA,"control",75,7,2,1035,16,"test_coda",399948,217,"coda_syllable",NA,"IH","LEFT",0,9,23,0.391304347826087,1.43284658373896,NA,0.99,0.957446808510638
"15",24,"UHB_UHP_5_07","coda-onset",NA,"control",75,8,2,1205,7,"test_coda",402163,218,"coda_syllable",NA,"UH","LEFT",0,-1,8,-0.125,-7.56715341626104,NA,0.99,0.957446808510638
"16",24,"IHB_IHP_5_00","coda-onset",NA,"control",75,7,3,917,0,"test_coda",404077,219,"coda_syllable",NA,"IH","LEFT",0,-7,7,-1,-14.567153416261,NA,0.99,0.957446808510638
"17",24,"IHB_IHP_5_07","coda-onset",NA,"control",75,7,3,1056,7,"test_coda",406136,220,"coda_syllable",NA,"IH","LEFT",0,0,7,0,-7.56715341626104,NA,0.99,0.957446808510638
"18",24,"AHB_AHP_3_13","coda-onset",NA,"control",75,14,2,992,13,"test_coda",408133,221,"coda_syllable",NA,"AH","LEFT",0,-1,14,-0.0714285714285714,-1.56715341626104,NA,0.99,0.957446808510638
"19",24,"UHB_UHP_5_09","coda-onset",NA,"control",75,8,2,981,9,"test_coda",410119,222,"coda_syllable",NA,"UH","LEFT",0,1,22,0.0454545454545455,-5.56715341626104,NA,0.99,0.957446808510638
"20",24,"UHB_UHP_5_25","coda-onset",NA,"control",83,8,1,939,25,"test_coda",412059,223,"coda_syllable",NA,"UH","LEFT",1,17,22,0.772727272727273,10.432846583739,NA,0.99,0.957446808510638
"21",24,"AAB_AAP_1_07","coda-onset",NA,"control",75,11,1,875,7,"test_coda",413930,224,"coda_syllable",NA,"AA","LEFT",0,-4,11,-0.363636363636364,-7.56715341626104,NA,0.99,0.957446808510638
"22",24,"AHB_AHP_3_13","coda-onset",NA,"control",75,14,1,885,13,"test_coda",415824,225,"coda_syllable",NA,"AH","LEFT",0,-1,14,-0.0714285714285714,-1.56715341626104,NA,0.99,0.957446808510638
"23",24,"IHB_IHP_5_04","coda-onset",NA,"control",75,7,3,832,4,"test_coda",417662,226,"coda_syllable",NA,"IH","LEFT",0,-3,7,-0.428571428571429,-10.567153416261,NA,0.99,0.957446808510638
"24",24,"UHB_UHP_5_20","coda-onset",NA,"control",83,8,1,843,20,"test_coda",419507,227,"coda_syllable",NA,"UH","LEFT",1,12,22,0.545454545454545,5.43284658373896,NA,0.99,0.957446808510638
"25",24,"UHB_UHP_5_13","coda-onset",NA,"control",83,8,2,864,13,"test_coda",421375,228,"coda_syllable",NA,"UH","LEFT",1,5,22,0.227272727272727,-1.56715341626104,NA,0.99,0.957446808510638
"26",24,"IHB_IHP_5_07","coda-onset",NA,"control",75,7,2,1088,7,"test_coda",423474,229,"coda_syllable",NA,"IH","LEFT",0,0,7,0,-7.56715341626104,NA,0.99,0.957446808510638
"27",24,"UHB_UHP_5_16","coda-onset",NA,"control",75,8,3,1248,16,"test_coda",425715,230,"coda_syllable",NA,"UH","LEFT",0,8,22,0.363636363636364,1.43284658373896,NA,0.99,0.957446808510638
"28",24,"IHB_IHP_5_13","coda-onset",NA,"control",75,7,3,864,13,"test_coda",427577,231,"coda_syllable",NA,"IH","LEFT",0,6,23,0.260869565217391,-1.56715341626104,NA,0.99,0.957446808510638
"29",24,"UHB_UHP_5_09","coda-onset",NA,"control",75,8,1,832,9,"test_coda",429414,232,"coda_syllable",NA,"UH","LEFT",0,1,22,0.0454545454545455,-5.56715341626104,NA,0.99,0.957446808510638
"30",24,"UHB_UHP_5_13","coda-onset",NA,"control",75,8,1,875,13,"test_coda",431293,233,"coda_syllable",NA,"UH","LEFT",0,5,22,0.227272727272727,-1.56715341626104,NA,0.99,0.957446808510638
"31",24,"AHB_AHP_3_07","coda-onset",NA,"control",75,14,1,800,7,"test_coda",433092,234,"coda_syllable",NA,"AH","LEFT",0,-7,14,-0.5,-7.56715341626104,NA,0.99,0.957446808510638
"32",24,"AAB_AAP_1_30","coda-onset",NA,"control",83,11,2,896,30,"test_coda",434990,235,"coda_syllable",NA,"AA","LEFT",1,19,19,1,15.432846583739,NA,0.99,0.957446808510638
"33",24,"AAB_AAP_1_04","coda-onset",NA,"control",75,11,3,960,4,"test_coda",436953,236,"coda_syllable",NA,"AA","LEFT",0,-7,11,-0.636363636363636,-10.567153416261,NA,0.99,0.957446808510638
"34",24,"UHB_UHP_5_30","coda-onset",NA,"control",83,8,3,885,30,"test_coda",438842,237,"coda_syllable",NA,"UH","LEFT",1,22,22,1,15.432846583739,NA,0.99,0.957446808510638
"35",24,"IHB_IHP_5_00","coda-onset",NA,"control",75,7,2,853,0,"test_coda",440702,238,"coda_syllable",NA,"IH","LEFT",0,-7,7,-1,-14.567153416261,NA,0.99,0.957446808510638
"36",24,"AAB_AAP_1_11","coda-onset",NA,"control",75,11,2,1088,11,"test_coda",442792,239,"coda_syllable",NA,"AA","LEFT",0,0,11,0,-3.56715341626104,NA,0.99,0.957446808510638
"37",24,"AHB_AHP_3_20","coda-onset",NA,"control",75,14,1,885,20,"test_coda",444689,240,"coda_syllable",NA,"AH","LEFT",0,6,16,0.375,5.43284658373896,NA,0.99,0.957446808510638
"38",24,"UHB_UHP_5_04","coda-onset",NA,"control",75,8,2,864,4,"test_coda",446553,241,"coda_syllable",NA,"UH","LEFT",0,-4,8,-0.5,-10.567153416261,NA,0.99,0.957446808510638
"39",24,"IHB_IHP_5_04","coda-onset",NA,"control",75,7,2,821,4,"test_coda",448373,242,"coda_syllable",NA,"IH","LEFT",0,-3,7,-0.428571428571429,-10.567153416261,NA,0.99,0.957446808510638
"40",24,"AHB_AHP_3_25","coda-onset",NA,"control",75,14,3,821,25,"test_coda",450205,243,"coda_syllable",NA,"AH","LEFT",0,11,16,0.6875,10.432846583739,NA,0.99,0.957446808510638
"41",24,"IHB_IHP_5_13","coda-onset",NA,"control",75,7,1,875,13,"test_coda",452074,244,"coda_syllable",NA,"IH","LEFT",0,6,23,0.260869565217391,-1.56715341626104,NA,0.99,0.957446808510638
"42",24,"AHB_AHP_3_20","coda-onset",NA,"control",75,14,3,811,20,"test_coda",453890,245,"coda_syllable",NA,"AH","LEFT",0,6,16,0.375,5.43284658373896,NA,0.99,0.957446808510638
"43",24,"UHB_UHP_5_25","coda-onset",NA,"control",83,8,3,971,25,"test_coda",455865,246,"coda_syllable",NA,"UH","LEFT",1,17,22,0.772727272727273,10.432846583739,NA,0.99,0.957446808510638
"44",24,"IHB_IHP_5_00","coda-onset",NA,"control",75,7,1,907,0,"test_coda",457770,247,"coda_syllable",NA,"IH","LEFT",0,-7,7,-1,-14.567153416261,NA,0.99,0.957446808510638
"45",24,"IHB_IHP_5_09","coda-onset",NA,"control",75,7,3,821,9,"test_coda",459597,248,"coda_syllable",NA,"IH","LEFT",0,2,23,0.0869565217391304,-5.56715341626104,NA,0.99,0.957446808510638
"46",24,"AHB_AHP_3_09","coda-onset",NA,"control",75,14,2,949,9,"test_coda",461547,249,"coda_syllable",NA,"AH","LEFT",0,-5,14,-0.357142857142857,-5.56715341626104,NA,0.99,0.957446808510638
"47",24,"AAB_AAP_1_25","coda-onset",NA,"control",83,11,1,907,25,"test_coda",463457,250,"coda_syllable",NA,"AA","LEFT",1,14,19,0.736842105263158,10.432846583739,NA,0.99,0.957446808510638
"48",24,"AHB_AHP_3_16","coda-onset",NA,"control",75,14,1,1077,16,"test_coda",465541,251,"coda_syllable",NA,"AH","LEFT",0,2,16,0.125,1.43284658373896,NA,0.99,0.957446808510638
"49",24,"IHB_IHP_5_25","coda-onset",NA,"control",75,7,1,949,25,"test_coda",467496,252,"coda_syllable",NA,"IH","LEFT",0,18,23,0.782608695652174,10.432846583739,NA,0.99,0.957446808510638
"50",24,"IHB_IHP_5_16","coda-onset",NA,"control",83,7,1,981,16,"test_coda",469472,253,"coda_syllable",NA,"IH","LEFT",1,9,23,0.391304347826087,1.43284658373896,NA,0.99,0.957446808510638
"51",24,"AHB_AHP_3_11","coda-onset",NA,"control",75,14,1,928,11,"test_coda",471406,254,"coda_syllable",NA,"AH","LEFT",0,-3,14,-0.214285714285714,-3.56715341626104,NA,0.99,0.957446808510638
"52",24,"AAB_AAP_1_11","coda-onset",NA,"control",75,11,3,1227,11,"test_coda",473638,255,"coda_syllable",NA,"AA","LEFT",0,0,11,0,-3.56715341626104,NA,0.99,0.957446808510638
"53",24,"AAB_AAP_1_25","coda-onset",NA,"control",83,11,2,960,25,"test_coda",475601,256,"coda_syllable",NA,"AA","LEFT",1,14,19,0.736842105263158,10.432846583739,NA,0.99,0.957446808510638
"54",24,"AHB_AHP_3_30","coda-onset",NA,"control",83,14,1,949,30,"test_coda",477545,257,"coda_syllable",NA,"AH","LEFT",1,16,16,1,15.432846583739,NA,0.99,0.957446808510638
"55",24,"AAB_AAP_1_20","coda-onset",NA,"control",83,11,1,896,20,"test_coda",479444,258,"coda_syllable",NA,"AA","LEFT",1,9,19,0.473684210526316,5.43284658373896,NA,0.99,0.957446808510638
"56",24,"UHB_UHP_5_20","coda-onset",NA,"control",83,8,3,832,20,"test_coda",481283,259,"coda_syllable",NA,"UH","LEFT",1,12,22,0.545454545454545,5.43284658373896,NA,0.99,0.957446808510638
"57",24,"UHB_UHP_5_11","coda-onset",NA,"control",75,8,2,1291,11,"test_coda",483577,260,"coda_syllable",NA,"UH","LEFT",0,3,22,0.136363636363636,-3.56715341626104,NA,0.99,0.957446808510638
"58",24,"AHB_AHP_3_09","coda-onset",NA,"control",75,14,1,1099,9,"test_coda",485674,261,"coda_syllable",NA,"AH","LEFT",0,-5,14,-0.357142857142857,-5.56715341626104,NA,0.99,0.957446808510638
"59",24,"UHB_UHP_5_11","coda-onset",NA,"control",75,8,3,1035,11,"test_coda",487715,262,"coda_syllable",NA,"UH","LEFT",0,3,22,0.136363636363636,-3.56715341626104,NA,0.99,0.957446808510638
"60",24,"UHB_UHP_5_00","coda-onset",NA,"control",75,8,3,1109,0,"test_coda",489831,263,"coda_syllable",NA,"UH","LEFT",0,-8,8,-1,-14.567153416261,NA,0.99,0.957446808510638
"61",24,"AHB_AHP_3_04","coda-onset",NA,"control",75,14,3,885,4,"test_coda",491713,264,"coda_syllable",NA,"AH","LEFT",0,-10,14,-0.714285714285714,-10.567153416261,NA,0.99,0.957446808510638
"62",24,"IHB_IHP_5_30","coda-onset",NA,"control",83,7,1,1163,30,"test_coda",493879,265,"coda_syllable",NA,"IH","LEFT",1,23,23,1,15.432846583739,NA,0.99,0.957446808510638
"63",24,"UHB_UHP_5_16","coda-onset",NA,"control",83,8,2,1291,16,"test_coda",496170,266,"coda_syllable",NA,"UH","LEFT",1,8,22,0.363636363636364,1.43284658373896,NA,0.99,0.957446808510638
"64",24,"UHB_UHP_5_11","coda-onset",NA,"control",75,8,1,1003,11,"test_coda",498181,267,"coda_syllable",NA,"UH","LEFT",0,3,22,0.136363636363636,-3.56715341626104,NA,0.99,0.957446808510638
"65",24,"IHB_IHP_5_25","coda-onset",NA,"control",83,7,3,1056,25,"test_coda",500239,268,"coda_syllable",NA,"IH","LEFT",1,18,23,0.782608695652174,10.432846583739,NA,0.99,0.957446808510638
"66",24,"AAB_AAP_1_30","coda-onset",NA,"control",83,11,3,949,30,"test_coda",502189,269,"coda_syllable",NA,"AA","LEFT",1,19,19,1,15.432846583739,NA,0.99,0.957446808510638
"67",24,"IHB_IHP_5_20","coda-onset",NA,"control",83,7,1,1077,20,"test_coda",504265,270,"coda_syllable",NA,"IH","LEFT",1,13,23,0.565217391304348,5.43284658373896,NA,0.99,0.957446808510638
"68",24,"AHB_AHP_3_00","coda-onset",NA,"control",75,14,1,853,0,"test_coda",506124,271,"coda_syllable",NA,"AH","LEFT",0,-14,14,-1,-14.567153416261,NA,0.99,0.957446808510638
"69",24,"AAB_AAP_1_16","coda-onset",NA,"control",83,11,2,1003,16,"test_coda",508128,272,"coda_syllable",NA,"AA","LEFT",1,5,19,0.263157894736842,1.43284658373896,NA,0.99,0.957446808510638
"70",24,"AHB_AHP_3_30","coda-onset",NA,"control",83,14,2,981,30,"test_coda",510115,273,"coda_syllable",NA,"AH","LEFT",1,16,16,1,15.432846583739,NA,0.99,0.957446808510638
"71",24,"AHB_AHP_3_25","coda-onset",NA,"control",83,14,2,875,25,"test_coda",511994,274,"coda_syllable",NA,"AH","LEFT",1,11,16,0.6875,10.432846583739,NA,0.99,0.957446808510638
"72",24,"IHB_IHP_5_13","coda-onset",NA,"control",75,7,2,1035,13,"test_coda",514034,275,"coda_syllable",NA,"IH","LEFT",0,6,23,0.260869565217391,-1.56715341626104,NA,0.99,0.957446808510638
"73",24,"AAB_AAP_1_00","coda-onset",NA,"control",83,11,3,1088,0,"test_coda",516116,276,"coda_syllable",NA,"AA","LEFT",1,-11,11,-1,-14.567153416261,NA,0.99,0.957446808510638
"74",24,"AHB_AHP_3_20","coda-onset",NA,"control",83,14,2,1195,20,"test_coda",518321,277,"coda_syllable",NA,"AH","LEFT",1,6,16,0.375,5.43284658373896,NA,0.99,0.957446808510638
"75",24,"UHB_UHP_5_04","coda-onset",NA,"control",75,8,1,1205,4,"test_coda",520523,278,"coda_syllable",NA,"UH","LEFT",0,-4,8,-0.5,-10.567153416261,NA,0.99,0.957446808510638
"76",24,"UHB_UHP_5_00","coda-onset",NA,"control",75,8,1,939,0,"test_coda",522465,279,"coda_syllable",NA,"UH","LEFT",0,-8,8,-1,-14.567153416261,NA,0.99,0.957446808510638
"77",24,"IHB_IHP_5_25","coda-onset",NA,"control",75,7,2,917,25,"test_coda",524390,280,"coda_syllable",NA,"IH","LEFT",0,18,23,0.782608695652174,10.432846583739,NA,0.99,0.957446808510638
"78",24,"UHB_UHP_5_30","coda-onset",NA,"control",83,8,2,1013,30,"test_coda",526409,281,"coda_syllable",NA,"UH","LEFT",1,22,22,1,15.432846583739,NA,0.99,0.957446808510638
"79",24,"UHB_UHP_5_07","coda-onset",NA,"control",75,8,1,971,7,"test_coda",528372,282,"coda_syllable",NA,"UH","LEFT",0,-1,8,-0.125,-7.56715341626104,NA,0.99,0.957446808510638
"80",24,"AHB_AHP_3_04","coda-onset",NA,"control",75,14,2,907,4,"test_coda",530281,283,"coda_syllable",NA,"AH","LEFT",0,-10,14,-0.714285714285714,-10.567153416261,NA,0.99,0.957446808510638
"81",24,"UHB_UHP_5_25","coda-onset",NA,"control",83,8,2,1056,25,"test_coda",532346,284,"coda_syllable",NA,"UH","LEFT",1,17,22,0.772727272727273,10.432846583739,NA,0.99,0.957446808510638
"82",24,"AHB_AHP_3_07","coda-onset",NA,"control",75,14,2,1344,7,"test_coda",534690,285,"coda_syllable",NA,"AH","LEFT",0,-7,14,-0.5,-7.56715341626104,NA,0.99,0.957446808510638
"83",24,"IHB_IHP_5_16","coda-onset",NA,"control",75,7,3,1195,16,"test_coda",536893,286,"coda_syllable",NA,"IH","LEFT",0,9,23,0.391304347826087,1.43284658373896,NA,0.99,0.957446808510638
"84",24,"AHB_AHP_3_00","coda-onset",NA,"control",75,14,3,843,0,"test_coda",538733,287,"coda_syllable",NA,"AH","LEFT",0,-14,14,-1,-14.567153416261,NA,0.99,0.957446808510638
"85",24,"UHB_UHP_5_16","coda-onset",NA,"control",75,8,1,1003,16,"test_coda",540742,288,"coda_syllable",NA,"UH","LEFT",0,8,22,0.363636363636364,1.43284658373896,NA,0.99,0.957446808510638
"86",24,"IHB_IHP_5_20","coda-onset",NA,"control",75,7,2,864,20,"test_coda",542602,289,"coda_syllable",NA,"IH","LEFT",0,13,23,0.565217391304348,5.43284658373896,NA,0.99,0.957446808510638
"87",24,"UHB_UHP_5_07","coda-onset",NA,"control",75,8,3,875,7,"test_coda",544484,290,"coda_syllable",NA,"UH","LEFT",0,-1,8,-0.125,-7.56715341626104,NA,0.99,0.957446808510638
"88",24,"IHB_IHP_5_04","coda-onset",NA,"control",75,7,1,736,4,"test_coda",546224,291,"coda_syllable",NA,"IH","LEFT",0,-3,7,-0.428571428571429,-10.567153416261,NA,0.99,0.957446808510638
"89",24,"IHB_IHP_5_09","coda-onset",NA,"control",75,7,2,779,9,"test_coda",548006,292,"coda_syllable",NA,"IH","LEFT",0,2,23,0.0869565217391304,-5.56715341626104,NA,0.99,0.957446808510638
"90",24,"AAB_AAP_1_20","coda-onset",NA,"control",83,11,2,875,20,"test_coda",549883,293,"coda_syllable",NA,"AA","LEFT",1,9,19,0.473684210526316,5.43284658373896,NA,0.99,0.957446808510638
"91",24,"IHB_IHP_5_11","coda-onset",NA,"control",75,7,2,843,11,"test_coda",551725,294,"coda_syllable",NA,"IH","LEFT",0,4,23,0.173913043478261,-3.56715341626104,NA,0.99,0.957446808510638
"92",24,"IHB_IHP_5_11","coda-onset",NA,"control",75,7,3,928,11,"test_coda",553658,295,"coda_syllable",NA,"IH","LEFT",0,4,23,0.173913043478261,-3.56715341626104,NA,0.99,0.957446808510638
"93",24,"UHB_UHP_5_04","coda-onset",NA,"control",75,8,3,917,4,"test_coda",555576,296,"coda_syllable",NA,"UH","LEFT",0,-4,8,-0.5,-10.567153416261,NA,0.99,0.957446808510638
"94",24,"AAB_AAP_1_04","coda-onset",NA,"control",75,11,1,896,4,"test_coda",557477,297,"coda_syllable",NA,"AA","LEFT",0,-7,11,-0.636363636363636,-10.567153416261,NA,0.99,0.957446808510638
"95",24,"AHB_AHP_3_11","coda-onset",NA,"control",75,14,2,821,11,"test_coda",559301,298,"coda_syllable",NA,"AH","LEFT",0,-3,14,-0.214285714285714,-3.56715341626104,NA,0.99,0.957446808510638
"96",24,"AAB_AAP_1_00","coda-onset",NA,"control",75,11,2,800,0,"test_coda",561097,299,"coda_syllable",NA,"AA","LEFT",0,-11,11,-1,-14.567153416261,NA,0.99,0.957446808510638
"97",24,"AAB_AAP_1_07","coda-onset",NA,"control",75,11,3,800,7,"test_coda",562903,300,"coda_syllable",NA,"AA","LEFT",0,-4,11,-0.363636363636364,-7.56715341626104,NA,0.99,0.957446808510638
"98",24,"AAB_AAP_1_20","coda-onset",NA,"control",83,11,3,971,20,"test_coda",564877,301,"coda_syllable",NA,"AA","LEFT",1,9,19,0.473684210526316,5.43284658373896,NA,0.99,0.957446808510638
"99",24,"AHB_AHP_3_11","coda-onset",NA,"control",75,14,3,896,11,"test_coda",566780,302,"coda_syllable",NA,"AH","LEFT",0,-3,14,-0.214285714285714,-3.56715341626104,NA,0.99,0.957446808510638
"100",24,"AAB_AAP_1_09","coda-onset",NA,"control",75,11,1,992,9,"test_coda",568769,303,"coda_syllable",NA,"AA","LEFT",0,-2,11,-0.181818181818182,-5.56715341626104,NA,0.99,0.957446808510638
"101",24,"AAB_AAP_1_25","coda-onset",NA,"control",83,11,3,1024,25,"test_coda",570798,304,"coda_syllable",NA,"AA","LEFT",1,14,19,0.736842105263158,10.432846583739,NA,0.99,0.957446808510638
"102",24,"UHB_UHP_5_30","coda-onset",NA,"control",83,8,1,1227,30,"test_coda",578026,306,"coda_syllable",NA,"UH","LEFT",1,22,22,1,15.432846583739,NA,0.99,0.957446808510638
"103",24,"AHB_AHP_3_13","coda-onset",NA,"control",75,14,3,843,13,"test_coda",579881,307,"coda_syllable",NA,"AH","LEFT",0,-1,14,-0.0714285714285714,-1.56715341626104,NA,0.99,0.957446808510638
"104",24,"UHB_UHP_5_09","coda-onset",NA,"control",75,8,3,992,9,"test_coda",581876,308,"coda_syllable",NA,"UH","LEFT",0,1,22,0.0454545454545455,-5.56715341626104,NA,0.99,0.957446808510638
"105",24,"AHB_AHP_3_16","coda-onset",NA,"control",75,14,3,1067,16,"test_coda",583951,309,"coda_syllable",NA,"AH","LEFT",0,2,16,0.125,1.43284658373896,NA,0.99,0.957446808510638
"106",24,"AAB_AAP_1_11","coda-onset",NA,"control",75,11,1,1205,11,"test_coda",586162,310,"coda_syllable",NA,"AA","LEFT",0,0,11,0,-3.56715341626104,NA,0.99,0.957446808510638
"107",24,"AAB_AAP_1_09","coda-onset",NA,"control",75,11,3,981,9,"test_coda",588139,311,"coda_syllable",NA,"AA","LEFT",0,-2,11,-0.181818181818182,-5.56715341626104,NA,0.99,0.957446808510638
"108",24,"AAB_AAP_1_00","coda-onset",NA,"control",75,11,1,1088,0,"test_coda",590235,312,"coda_syllable",NA,"AA","LEFT",0,-11,11,-1,-14.567153416261,NA,0.99,0.957446808510638
"109",24,"UHB_UHP_5_20","coda-onset",NA,"control",83,8,2,949,20,"test_coda",592186,313,"coda_syllable",NA,"UH","LEFT",1,12,22,0.545454545454545,5.43284658373896,NA,0.99,0.957446808510638
"110",24,"AHB_AHP_3_25","coda-onset",NA,"control",75,14,1,1173,25,"test_coda",594364,314,"coda_syllable",NA,"AH","LEFT",0,11,16,0.6875,10.432846583739,NA,0.99,0.957446808510638
"111",24,"IHB_IHP_5_20","coda-onset",NA,"control",75,7,3,1088,20,"test_coda",596448,315,"coda_syllable",NA,"IH","LEFT",0,13,23,0.565217391304348,5.43284658373896,NA,0.99,0.957446808510638
"112",24,"AHB_AHP_3_00","coda-onset",NA,"control",75,14,2,949,0,"test_coda",598403,316,"coda_syllable",NA,"AH","LEFT",0,-14,14,-1,-14.567153416261,NA,0.99,0.957446808510638
"113",24,"IHB_IHP_5_30","coda-onset",NA,"control",83,7,2,971,30,"test_coda",600372,317,"coda_syllable",NA,"IH","LEFT",1,23,23,1,15.432846583739,NA,0.99,0.957446808510638
"114",24,"AAB_AAP_1_07","coda-onset",NA,"control",75,11,2,949,7,"test_coda",602324,318,"coda_syllable",NA,"AA","LEFT",0,-4,11,-0.363636363636364,-7.56715341626104,NA,0.99,0.957446808510638
"115",24,"AAB_AAP_1_04","coda-onset",NA,"control",75,11,2,1003,4,"test_coda",604332,319,"coda_syllable",NA,"AA","LEFT",0,-7,11,-0.636363636363636,-10.567153416261,NA,0.99,0.957446808510638
"116",24,"IHB_IHP_5_11","coda-onset",NA,"control",75,7,1,1099,11,"test_coda",606435,320,"coda_syllable",NA,"IH","LEFT",0,4,23,0.173913043478261,-3.56715341626104,NA,0.99,0.957446808510638
"117",24,"IHB_IHP_5_09","coda-onset",NA,"control",75,7,1,843,9,"test_coda",608280,321,"coda_syllable",NA,"IH","LEFT",0,2,23,0.0869565217391304,-5.56715341626104,NA,0.99,0.957446808510638
"118",24,"AAB_AAP_1_13","coda-onset",NA,"control",83,11,3,1483,13,"test_coda",610762,322,"coda_syllable",NA,"AA","LEFT",1,2,19,0.105263157894737,-1.56715341626104,NA,0.99,0.957446808510638
"119",24,"AHB_AHP_3_04","coda-onset",NA,"control",75,14,1,896,4,"test_coda",612661,323,"coda_syllable",NA,"AH","LEFT",0,-10,14,-0.714285714285714,-10.567153416261,NA,0.99,0.957446808510638
"120",24,"BUH_PUH_3_18","coda-onset",NA,"control",83,21,1,2400,18,"test_onset",624367,325,"onset_syllable",NA,"UH","LEFT",1,-3,21,-0.142857142857143,3.43284658373896,NA,0.99,0.957446808510638
"121",24,"BAH_PAH_3_15","coda-onset",NA,"control",75,23,1,832,15,"test_onset",626195,326,"onset_syllable",NA,"AH","LEFT",0,-8,23,-0.347826086956522,0.432846583738957,NA,0.99,0.957446808510638
"122",24,"BUH_PUH_3_15","coda-onset",NA,"control",75,21,1,981,15,"test_onset",628187,327,"onset_syllable",NA,"UH","LEFT",0,-6,21,-0.285714285714286,0.432846583738957,NA,0.99,0.957446808510638
"123",24,"BIH_PIH_1_30","coda-onset",NA,"control",83,16,3,1024,30,"test_onset",630210,328,"onset_syllable",NA,"IH","LEFT",1,14,14,1,15.432846583739,NA,0.99,0.957446808510638
"124",24,"BAA_PAA_3_15","coda-onset",NA,"control",75,25,3,896,15,"test_onset",632108,329,"onset_syllable",NA,"AA","LEFT",0,-10,25,-0.4,0.432846583738957,NA,0.99,0.957446808510638
"125",24,"BAA_PAA_3_22","coda-onset",NA,"control",75,25,3,821,22,"test_onset",633936,330,"onset_syllable",NA,"AA","LEFT",0,-3,25,-0.12,7.43284658373896,NA,0.99,0.957446808510638
"126",24,"BUH_PUH_3_00","coda-onset",NA,"control",75,21,1,971,0,"test_onset",635910,331,"onset_syllable",NA,"UH","LEFT",0,-21,21,-1,-14.567153416261,NA,0.99,0.957446808510638
"127",24,"BAA_PAA_3_27","coda-onset",NA,"control",75,25,3,971,27,"test_onset",637877,332,"onset_syllable",NA,"AA","LEFT",0,2,5,0.4,12.432846583739,NA,0.99,0.957446808510638
"128",24,"BAA_PAA_3_27","coda-onset",NA,"control",83,25,2,811,27,"test_onset",639690,333,"onset_syllable",NA,"AA","LEFT",1,2,5,0.4,12.432846583739,NA,0.99,0.957446808510638
"129",24,"BIH_PIH_1_20","coda-onset",NA,"control",83,16,2,1056,20,"test_onset",641756,334,"onset_syllable",NA,"IH","LEFT",1,4,14,0.285714285714286,5.43284658373896,NA,0.99,0.957446808510638
"130",24,"BUH_PUH_3_24","coda-onset",NA,"control",83,21,3,885,24,"test_onset",643639,335,"onset_syllable",NA,"UH","LEFT",1,3,9,0.333333333333333,9.43284658373896,NA,0.99,0.957446808510638
"131",24,"BAH_PAH_3_30","coda-onset",NA,"control",83,23,3,875,30,"test_onset",645517,336,"onset_syllable",NA,"AH","LEFT",1,7,7,1,15.432846583739,NA,0.99,0.957446808510638
"132",24,"BAH_PAH_3_27","coda-onset",NA,"control",83,23,1,757,27,"test_onset",647279,337,"onset_syllable",NA,"AH","LEFT",1,4,7,0.571428571428571,12.432846583739,NA,0.99,0.957446808510638
"133",24,"BAH_PAH_3_30","coda-onset",NA,"control",83,23,1,757,30,"test_onset",649034,338,"onset_syllable",NA,"AH","LEFT",1,7,7,1,15.432846583739,NA,0.99,0.957446808510638
"134",24,"BAA_PAA_3_22","coda-onset",NA,"control",75,25,2,853,22,"test_onset",650897,339,"onset_syllable",NA,"AA","LEFT",0,-3,25,-0.12,7.43284658373896,NA,0.99,0.957446808510638
"135",24,"BIH_PIH_1_15","coda-onset",NA,"control",75,16,2,949,15,"test_onset",652843,340,"onset_syllable",NA,"IH","LEFT",0,-1,16,-0.0625,0.432846583738957,NA,0.99,0.957446808510638
"136",24,"BAA_PAA_3_24","coda-onset",NA,"control",75,25,1,832,24,"test_onset",654676,341,"onset_syllable",NA,"AA","LEFT",0,-1,25,-0.04,9.43284658373896,NA,0.99,0.957446808510638
"137",24,"BAA_PAA_3_27","coda-onset",NA,"control",83,25,1,757,27,"test_onset",656438,342,"onset_syllable",NA,"AA","LEFT",1,2,5,0.4,12.432846583739,NA,0.99,0.957446808510638
"138",24,"BIH_PIH_1_24","coda-onset",NA,"control",75,16,3,811,24,"test_onset",658251,343,"onset_syllable",NA,"IH","LEFT",0,8,14,0.571428571428571,9.43284658373896,NA,0.99,0.957446808510638
"139",24,"BAH_PAH_3_24","coda-onset",NA,"control",83,23,3,917,24,"test_onset",660177,344,"onset_syllable",NA,"AH","LEFT",1,1,7,0.142857142857143,9.43284658373896,NA,0.99,0.957446808510638
"140",24,"BIH_PIH_1_18","coda-onset",NA,"control",83,16,1,1013,18,"test_onset",662188,345,"onset_syllable",NA,"IH","LEFT",1,2,14,0.142857142857143,3.43284658373896,NA,0.99,0.957446808510638
"141",24,"BAH_PAH_3_27","coda-onset",NA,"control",83,23,3,800,27,"test_onset",663989,346,"onset_syllable",NA,"AH","LEFT",1,4,7,0.571428571428571,12.432846583739,NA,0.99,0.957446808510638
"142",24,"BAA_PAA_3_05","coda-onset",NA,"control",75,25,1,725,5,"test_onset",665724,347,"onset_syllable",NA,"AA","LEFT",0,-20,25,-0.8,-9.56715341626104,NA,0.99,0.957446808510638
"143",24,"BUH_PUH_3_20","coda-onset",NA,"control",83,21,3,992,20,"test_onset",667720,348,"onset_syllable",NA,"UH","LEFT",1,-1,21,-0.0476190476190476,5.43284658373896,NA,0.99,0.957446808510638
"144",24,"BAH_PAH_3_10","coda-onset",NA,"control",75,23,2,1056,10,"test_onset",669782,349,"onset_syllable",NA,"AH","LEFT",0,-13,23,-0.565217391304348,-4.56715341626104,NA,0.99,0.957446808510638
"145",24,"BAA_PAA_3_15","coda-onset",NA,"control",75,25,2,1056,15,"test_onset",671838,350,"onset_syllable",NA,"AA","LEFT",0,-10,25,-0.4,0.432846583738957,NA,0.99,0.957446808510638
"146",24,"BAH_PAH_3_20","coda-onset",NA,"control",75,23,3,811,20,"test_onset",673651,351,"onset_syllable",NA,"AH","LEFT",0,-3,23,-0.130434782608696,5.43284658373896,NA,0.99,0.957446808510638
"147",24,"BAA_PAA_3_18","coda-onset",NA,"control",75,25,2,885,18,"test_onset",675539,352,"onset_syllable",NA,"AA","LEFT",0,-7,25,-0.28,3.43284658373896,NA,0.99,0.957446808510638
"148",24,"BAA_PAA_3_30","coda-onset",NA,"control",83,25,1,832,30,"test_onset",677365,353,"onset_syllable",NA,"AA","LEFT",1,5,5,1,15.432846583739,NA,0.99,0.957446808510638
"149",24,"BAH_PAH_3_15","coda-onset",NA,"control",75,23,3,821,15,"test_onset",679190,354,"onset_syllable",NA,"AH","LEFT",0,-8,23,-0.347826086956522,0.432846583738957,NA,0.99,0.957446808510638
"150",24,"BAH_PAH_3_00","coda-onset",NA,"control",75,23,1,896,0,"test_onset",681089,355,"onset_syllable",NA,"AH","LEFT",0,-23,23,-1,-14.567153416261,NA,0.99,0.957446808510638
"151",24,"BAA_PAA_3_24","coda-onset",NA,"control",83,25,2,757,24,"test_onset",682849,356,"onset_syllable",NA,"AA","LEFT",1,-1,25,-0.04,9.43284658373896,NA,0.99,0.957446808510638
"152",24,"BAA_PAA_3_24","coda-onset",NA,"control",75,25,3,1056,24,"test_onset",684910,357,"onset_syllable",NA,"AA","LEFT",0,-1,25,-0.04,9.43284658373896,NA,0.99,0.957446808510638
"153",24,"BIH_PIH_1_05","coda-onset",NA,"control",75,16,2,907,5,"test_onset",686820,358,"onset_syllable",NA,"IH","LEFT",0,-11,16,-0.6875,-9.56715341626104,NA,0.99,0.957446808510638
"154",24,"BIH_PIH_1_05","coda-onset",NA,"control",75,16,3,800,5,"test_onset",688624,359,"onset_syllable",NA,"IH","LEFT",0,-11,16,-0.6875,-9.56715341626104,NA,0.99,0.957446808510638
"155",24,"BIH_PIH_1_27","coda-onset",NA,"control",83,16,2,939,27,"test_onset",690566,360,"onset_syllable",NA,"IH","LEFT",1,11,14,0.785714285714286,12.432846583739,NA,0.99,0.957446808510638
"156",24,"BAH_PAH_3_05","coda-onset",NA,"control",75,23,3,992,5,"test_onset",692557,361,"onset_syllable",NA,"AH","LEFT",0,-18,23,-0.782608695652174,-9.56715341626104,NA,0.99,0.957446808510638
"157",24,"BUH_PUH_3_10","coda-onset",NA,"control",75,21,3,1003,10,"test_onset",694564,362,"onset_syllable",NA,"UH","LEFT",0,-11,21,-0.523809523809524,-4.56715341626104,NA,0.99,0.957446808510638
"158",24,"BAA_PAA_3_15","coda-onset",NA,"control",75,25,1,1173,15,"test_onset",696735,363,"onset_syllable",NA,"AA","LEFT",0,-10,25,-0.4,0.432846583738957,NA,0.99,0.957446808510638
"159",24,"BIH_PIH_1_15","coda-onset",NA,"control",75,16,3,1056,15,"test_onset",698803,364,"onset_syllable",NA,"IH","LEFT",0,-1,16,-0.0625,0.432846583738957,NA,0.99,0.957446808510638
"160",24,"BAH_PAH_3_24","coda-onset",NA,"control",83,23,2,907,24,"test_onset",700711,365,"onset_syllable",NA,"AH","LEFT",1,1,7,0.142857142857143,9.43284658373896,NA,0.99,0.957446808510638
"161",24,"BUH_PUH_3_22","coda-onset",NA,"control",83,21,3,800,22,"test_onset",702508,366,"onset_syllable",NA,"UH","LEFT",1,1,9,0.111111111111111,7.43284658373896,NA,0.99,0.957446808510638
"162",24,"BAH_PAH_3_05","coda-onset",NA,"control",75,23,1,1099,5,"test_onset",704616,367,"onset_syllable",NA,"AH","LEFT",0,-18,23,-0.782608695652174,-9.56715341626104,NA,0.99,0.957446808510638
"163",24,"BAA_PAA_3_30","coda-onset",NA,"control",83,25,3,981,30,"test_onset",706609,368,"onset_syllable",NA,"AA","LEFT",1,5,5,1,15.432846583739,NA,0.99,0.957446808510638
"164",24,"BAH_PAH_3_10","coda-onset",NA,"control",75,23,1,971,10,"test_onset",708576,369,"onset_syllable",NA,"AH","LEFT",0,-13,23,-0.565217391304348,-4.56715341626104,NA,0.99,0.957446808510638
"165",24,"BIH_PIH_1_20","coda-onset",NA,"control",83,16,3,981,20,"test_onset",710566,370,"onset_syllable",NA,"IH","LEFT",1,4,14,0.285714285714286,5.43284658373896,NA,0.99,0.957446808510638
"166",24,"BIH_PIH_1_24","coda-onset",NA,"control",83,16,2,1387,24,"test_onset",712950,371,"onset_syllable",NA,"IH","LEFT",1,8,14,0.571428571428571,9.43284658373896,NA,0.99,0.957446808510638
"167",24,"BAA_PAA_3_20","coda-onset",NA,"control",75,25,3,864,20,"test_onset",714816,372,"onset_syllable",NA,"AA","LEFT",0,-5,25,-0.2,5.43284658373896,NA,0.99,0.957446808510638
"168",24,"BIH_PIH_1_22","coda-onset",NA,"control",75,16,3,896,22,"test_onset",716716,373,"onset_syllable",NA,"IH","LEFT",0,6,14,0.428571428571429,7.43284658373896,NA,0.99,0.957446808510638
"169",24,"BAH_PAH_3_27","coda-onset",NA,"control",83,23,2,864,27,"test_onset",718582,374,"onset_syllable",NA,"AH","LEFT",1,4,7,0.571428571428571,12.432846583739,NA,0.99,0.957446808510638
"170",24,"BIH_PIH_1_18","coda-onset",NA,"control",75,16,2,992,18,"test_onset",720581,375,"onset_syllable",NA,"IH","LEFT",0,2,14,0.142857142857143,3.43284658373896,NA,0.99,0.957446808510638
"171",24,"BIH_PIH_1_05","coda-onset",NA,"control",75,16,1,960,5,"test_onset",722541,376,"onset_syllable",NA,"IH","LEFT",0,-11,16,-0.6875,-9.56715341626104,NA,0.99,0.957446808510638
"172",24,"BIH_PIH_1_27","coda-onset",NA,"control",83,16,3,949,27,"test_onset",724499,377,"onset_syllable",NA,"IH","LEFT",1,11,14,0.785714285714286,12.432846583739,NA,0.99,0.957446808510638
"173",24,"BIH_PIH_1_10","coda-onset",NA,"control",75,16,2,875,10,"test_onset",726386,378,"onset_syllable",NA,"IH","LEFT",0,-6,16,-0.375,-4.56715341626104,NA,0.99,0.957446808510638
"174",24,"BIH_PIH_1_24","coda-onset",NA,"control",75,16,1,928,24,"test_onset",728318,379,"onset_syllable",NA,"IH","LEFT",0,8,14,0.571428571428571,9.43284658373896,NA,0.99,0.957446808510638
"175",24,"BUH_PUH_3_18","coda-onset",NA,"control",75,21,3,939,18,"test_onset",730268,380,"onset_syllable",NA,"UH","LEFT",0,-3,21,-0.142857142857143,3.43284658373896,NA,0.99,0.957446808510638
"176",24,"BAA_PAA_3_10","coda-onset",NA,"control",75,25,2,1003,10,"test_onset",732272,381,"onset_syllable",NA,"AA","LEFT",0,-15,25,-0.6,-4.56715341626104,NA,0.99,0.957446808510638
"177",24,"BIH_PIH_1_20","coda-onset",NA,"control",75,16,1,1237,20,"test_onset",734507,382,"onset_syllable",NA,"IH","LEFT",0,4,14,0.285714285714286,5.43284658373896,NA,0.99,0.957446808510638
"178",24,"BUH_PUH_3_30","coda-onset",NA,"control",83,21,2,821,30,"test_onset",736332,383,"onset_syllable",NA,"UH","LEFT",1,9,9,1,15.432846583739,NA,0.99,0.957446808510638
"179",24,"BAH_PAH_3_00","coda-onset",NA,"control",75,23,2,917,0,"test_onset",738256,384,"onset_syllable",NA,"AH","LEFT",0,-23,23,-1,-14.567153416261,NA,0.99,0.957446808510638
"180",24,"BAH_PAH_3_22","coda-onset",NA,"control",75,23,2,917,22,"test_onset",740174,385,"onset_syllable",NA,"AH","LEFT",0,-1,23,-0.0434782608695652,7.43284658373896,NA,0.99,0.957446808510638
"181",24,"BIH_PIH_1_00","coda-onset",NA,"control",75,16,1,853,0,"test_onset",742029,386,"onset_syllable",NA,"IH","LEFT",0,-16,16,-1,-14.567153416261,NA,0.99,0.957446808510638
"182",24,"BIH_PIH_1_22","coda-onset",NA,"control",75,16,2,853,22,"test_onset",743882,387,"onset_syllable",NA,"IH","LEFT",0,6,14,0.428571428571429,7.43284658373896,NA,0.99,0.957446808510638
"183",24,"BUH_PUH_3_05","coda-onset",NA,"control",75,21,1,960,5,"test_onset",745849,388,"onset_syllable",NA,"UH","LEFT",0,-16,21,-0.761904761904762,-9.56715341626104,NA,0.99,0.957446808510638
"184",24,"BAH_PAH_3_18","coda-onset",NA,"control",75,23,3,853,18,"test_onset",747703,389,"onset_syllable",NA,"AH","LEFT",0,-5,23,-0.217391304347826,3.43284658373896,NA,0.99,0.957446808510638
"185",24,"BUH_PUH_3_18","coda-onset",NA,"control",75,21,2,811,18,"test_onset",749522,390,"onset_syllable",NA,"UH","LEFT",0,-3,21,-0.142857142857143,3.43284658373896,NA,0.99,0.957446808510638
"186",24,"BUH_PUH_3_00","coda-onset",NA,"control",75,21,3,800,0,"test_onset",751325,391,"onset_syllable",NA,"UH","LEFT",0,-21,21,-1,-14.567153416261,NA,0.99,0.957446808510638
"187",24,"BAA_PAA_3_00","coda-onset",NA,"control",75,25,3,960,0,"test_onset",753287,392,"onset_syllable",NA,"AA","LEFT",0,-25,25,-1,-14.567153416261,NA,0.99,0.957446808510638
"188",24,"BUH_PUH_3_27","coda-onset",NA,"control",83,21,3,896,27,"test_onset",755180,393,"onset_syllable",NA,"UH","LEFT",1,6,9,0.666666666666667,12.432846583739,NA,0.99,0.957446808510638
"189",24,"BAA_PAA_3_22","coda-onset",NA,"control",75,25,1,885,22,"test_onset",757065,394,"onset_syllable",NA,"AA","LEFT",0,-3,25,-0.12,7.43284658373896,NA,0.99,0.957446808510638
"190",24,"BIH_PIH_1_27","coda-onset",NA,"control",83,16,1,928,27,"test_onset",758998,395,"onset_syllable",NA,"IH","LEFT",1,11,14,0.785714285714286,12.432846583739,NA,0.99,0.957446808510638
"191",24,"BUH_PUH_3_22","coda-onset",NA,"control",83,21,2,1205,22,"test_onset",761208,396,"onset_syllable",NA,"UH","LEFT",1,1,9,0.111111111111111,7.43284658373896,NA,0.99,0.957446808510638
"192",24,"BUH_PUH_3_27","coda-onset",NA,"control",83,21,2,917,27,"test_onset",763127,397,"onset_syllable",NA,"UH","LEFT",1,6,9,0.666666666666667,12.432846583739,NA,0.99,0.957446808510638
"193",24,"BUH_PUH_3_22","coda-onset",NA,"control",83,21,1,875,22,"test_onset",765004,398,"onset_syllable",NA,"UH","LEFT",1,1,9,0.111111111111111,7.43284658373896,NA,0.99,0.957446808510638
"194",24,"BAA_PAA_3_20","coda-onset",NA,"control",75,25,1,907,20,"test_onset",766911,399,"onset_syllable",NA,"AA","LEFT",0,-5,25,-0.2,5.43284658373896,NA,0.99,0.957446808510638
"195",24,"BUH_PUH_3_30","coda-onset",NA,"control",83,21,3,949,30,"test_onset",768864,400,"onset_syllable",NA,"UH","LEFT",1,9,9,1,15.432846583739,NA,0.99,0.957446808510638
"196",24,"BUH_PUH_3_20","coda-onset",NA,"control",83,21,2,992,20,"test_onset",770865,401,"onset_syllable",NA,"UH","LEFT",1,-1,21,-0.0476190476190476,5.43284658373896,NA,0.99,0.957446808510638
"197",24,"BUH_PUH_3_15","coda-onset",NA,"control",75,21,2,928,15,"test_onset",772791,402,"onset_syllable",NA,"UH","LEFT",0,-6,21,-0.285714285714286,0.432846583738957,NA,0.99,0.957446808510638
"198",24,"BAH_PAH_3_05","coda-onset",NA,"control",75,23,2,1237,5,"test_onset",775028,403,"onset_syllable",NA,"AH","LEFT",0,-18,23,-0.782608695652174,-9.56715341626104,NA,0.99,0.957446808510638
"199",24,"BAH_PAH_3_30","coda-onset",NA,"control",83,23,2,1387,30,"test_onset",777424,404,"onset_syllable",NA,"AH","LEFT",1,7,7,1,15.432846583739,NA,0.99,0.957446808510638
"200",24,"BAH_PAH_3_18","coda-onset",NA,"control",75,23,1,1525,18,"test_onset",779947,405,"onset_syllable",NA,"AH","LEFT",0,-5,23,-0.217391304347826,3.43284658373896,NA,0.99,0.957446808510638
"201",24,"BUH_PUH_3_00","coda-onset",NA,"control",75,21,2,971,0,"test_onset",781920,406,"onset_syllable",NA,"UH","LEFT",0,-21,21,-1,-14.567153416261,NA,0.99,0.957446808510638
"202",24,"BAA_PAA_3_10","coda-onset",NA,"control",75,25,1,1003,10,"test_onset",783925,407,"onset_syllable",NA,"AA","LEFT",0,-15,25,-0.6,-4.56715341626104,NA,0.99,0.957446808510638
"203",24,"BIH_PIH_1_00","coda-onset",NA,"control",75,16,3,907,0,"test_onset",785839,408,"onset_syllable",NA,"IH","LEFT",0,-16,16,-1,-14.567153416261,NA,0.99,0.957446808510638
"204",24,"BUH_PUH_3_15","coda-onset",NA,"control",75,21,3,789,15,"test_onset",787636,409,"onset_syllable",NA,"UH","LEFT",0,-6,21,-0.285714285714286,0.432846583738957,NA,0.99,0.957446808510638
"205",24,"BUH_PUH_3_24","coda-onset",NA,"control",83,21,1,747,24,"test_onset",789390,410,"onset_syllable",NA,"UH","LEFT",1,3,9,0.333333333333333,9.43284658373896,NA,0.99,0.957446808510638
"206",24,"BIH_PIH_1_10","coda-onset",NA,"control",75,16,1,907,10,"test_onset",791300,411,"onset_syllable",NA,"IH","LEFT",0,-6,16,-0.375,-4.56715341626104,NA,0.99,0.957446808510638
"207",24,"BAH_PAH_3_10","coda-onset",NA,"control",75,23,3,939,10,"test_onset",793244,412,"onset_syllable",NA,"AH","LEFT",0,-13,23,-0.565217391304348,-4.56715341626104,NA,0.99,0.957446808510638
"208",24,"BAA_PAA_3_05","coda-onset",NA,"control",75,25,3,853,5,"test_onset",795099,413,"onset_syllable",NA,"AA","LEFT",0,-20,25,-0.8,-9.56715341626104,NA,0.99,0.957446808510638
"209",24,"BAA_PAA_3_30","coda-onset",NA,"control",83,25,2,843,30,"test_onset",796938,414,"onset_syllable",NA,"AA","LEFT",1,5,5,1,15.432846583739,NA,0.99,0.957446808510638
"210",24,"BAH_PAH_3_00","coda-onset",NA,"control",75,23,3,779,0,"test_onset",798714,415,"onset_syllable",NA,"AH","LEFT",0,-23,23,-1,-14.567153416261,NA,0.99,0.957446808510638
"211",24,"BUH_PUH_3_24","coda-onset",NA,"control",83,21,2,875,24,"test_onset",800588,416,"onset_syllable",NA,"UH","LEFT",1,3,9,0.333333333333333,9.43284658373896,NA,0.99,0.957446808510638
"212",24,"BAH_PAH_3_22","coda-onset",NA,"control",75,23,1,1323,22,"test_onset",802911,417,"onset_syllable",NA,"AH","LEFT",0,-1,23,-0.0434782608695652,7.43284658373896,NA,0.99,0.957446808510638
"213",24,"BUH_PUH_3_05","coda-onset",NA,"control",75,21,2,896,5,"test_onset",804799,418,"onset_syllable",NA,"UH","LEFT",0,-16,21,-0.761904761904762,-9.56715341626104,NA,0.99,0.957446808510638
"214",24,"BUH_PUH_3_10","coda-onset",NA,"control",75,21,2,832,10,"test_onset",806640,419,"onset_syllable",NA,"UH","LEFT",0,-11,21,-0.523809523809524,-4.56715341626104,NA,0.99,0.957446808510638
"215",24,"BIH_PIH_1_22","coda-onset",NA,"control",75,16,1,917,22,"test_onset",808554,420,"onset_syllable",NA,"IH","LEFT",0,6,14,0.428571428571429,7.43284658373896,NA,0.99,0.957446808510638
"216",24,"BAA_PAA_3_10","coda-onset",NA,"control",75,25,3,832,10,"test_onset",810394,421,"onset_syllable",NA,"AA","LEFT",0,-15,25,-0.6,-4.56715341626104,NA,0.99,0.957446808510638
"217",24,"BAH_PAH_3_20","coda-onset",NA,"control",75,23,1,843,20,"test_onset",812243,422,"onset_syllable",NA,"AH","LEFT",0,-3,23,-0.130434782608696,5.43284658373896,NA,0.99,0.957446808510638
"218",24,"BUH_PUH_3_30","coda-onset",NA,"control",83,21,1,736,30,"test_onset",813973,423,"onset_syllable",NA,"UH","LEFT",1,9,9,1,15.432846583739,NA,0.99,0.957446808510638
"219",24,"BUH_PUH_3_10","coda-onset",NA,"control",75,21,1,821,10,"test_onset",815796,424,"onset_syllable",NA,"UH","LEFT",0,-11,21,-0.523809523809524,-4.56715341626104,NA,0.99,0.957446808510638
"220",24,"BAH_PAH_3_24","coda-onset",NA,"control",83,23,1,1301,24,"test_onset",818091,425,"onset_syllable",NA,"AH","LEFT",1,1,7,0.142857142857143,9.43284658373896,NA,0.99,0.957446808510638
"221",24,"BAH_PAH_3_20","coda-onset",NA,"control",75,23,2,939,20,"test_onset",820032,426,"onset_syllable",NA,"AH","LEFT",0,-3,23,-0.130434782608696,5.43284658373896,NA,0.99,0.957446808510638
"222",24,"BAA_PAA_3_18","coda-onset",NA,"control",75,25,1,885,18,"test_onset",821924,427,"onset_syllable",NA,"AA","LEFT",0,-7,25,-0.28,3.43284658373896,NA,0.99,0.957446808510638
"223",24,"BAH_PAH_3_15","coda-onset",NA,"control",75,23,2,907,15,"test_onset",823835,428,"onset_syllable",NA,"AH","LEFT",0,-8,23,-0.347826086956522,0.432846583738957,NA,0.99,0.957446808510638
"224",24,"BUH_PUH_3_05","coda-onset",NA,"control",75,21,3,832,5,"test_onset",825673,429,"onset_syllable",NA,"UH","LEFT",0,-16,21,-0.761904761904762,-9.56715341626104,NA,0.99,0.957446808510638
"225",24,"BUH_PUH_3_20","coda-onset",NA,"control",75,21,1,800,20,"test_onset",827474,430,"onset_syllable",NA,"UH","LEFT",0,-1,21,-0.0476190476190476,5.43284658373896,NA,0.99,0.957446808510638
"226",24,"BIH_PIH_1_30","coda-onset",NA,"control",83,16,1,992,30,"test_onset",829462,431,"onset_syllable",NA,"IH","LEFT",1,14,14,1,15.432846583739,NA,0.99,0.957446808510638
"227",24,"BIH_PIH_1_10","coda-onset",NA,"control",75,16,3,907,10,"test_onset",831370,432,"onset_syllable",NA,"IH","LEFT",0,-6,16,-0.375,-4.56715341626104,NA,0.99,0.957446808510638
"228",24,"BAA_PAA_3_20","coda-onset",NA,"control",75,25,2,843,20,"test_onset",833206,433,"onset_syllable",NA,"AA","LEFT",0,-5,25,-0.2,5.43284658373896,NA,0.99,0.957446808510638
"229",24,"BAA_PAA_3_18","coda-onset",NA,"control",75,25,3,779,18,"test_onset",834991,434,"onset_syllable",NA,"AA","LEFT",0,-7,25,-0.28,3.43284658373896,NA,0.99,0.957446808510638
"230",24,"BUH_PUH_3_27","coda-onset",NA,"control",83,21,1,800,27,"test_onset",836796,435,"onset_syllable",NA,"UH","LEFT",1,6,9,0.666666666666667,12.432846583739,NA,0.99,0.957446808510638
"231",24,"BIH_PIH_1_30","coda-onset",NA,"control",75,16,2,939,30,"test_onset",838730,436,"onset_syllable",NA,"IH","LEFT",0,14,14,1,15.432846583739,NA,0.99,0.957446808510638
"232",24,"BAH_PAH_3_18","coda-onset",NA,"control",75,23,2,885,18,"test_onset",840624,437,"onset_syllable",NA,"AH","LEFT",0,-5,23,-0.217391304347826,3.43284658373896,NA,0.99,0.957446808510638
"233",24,"BAA_PAA_3_00","coda-onset",NA,"control",75,25,2,1045,0,"test_onset",842672,438,"onset_syllable",NA,"AA","LEFT",0,-25,25,-1,-14.567153416261,NA,0.99,0.957446808510638
"234",24,"BAH_PAH_3_22","coda-onset",NA,"control",83,23,3,1120,22,"test_onset",844791,439,"onset_syllable",NA,"AH","LEFT",1,-1,23,-0.0434782608695652,7.43284658373896,NA,0.99,0.957446808510638
"235",24,"BIH_PIH_1_00","coda-onset",NA,"control",75,16,2,1003,0,"test_onset",846799,440,"onset_syllable",NA,"IH","LEFT",0,-16,16,-1,-14.567153416261,NA,0.99,0.957446808510638
"236",24,"BIH_PIH_1_15","coda-onset",NA,"control",75,16,1,907,15,"test_onset",848705,441,"onset_syllable",NA,"IH","LEFT",0,-1,16,-0.0625,0.432846583738957,NA,0.99,0.957446808510638
"237",24,"BAA_PAA_3_00","coda-onset",NA,"control",75,25,1,907,0,"test_onset",850615,442,"onset_syllable",NA,"AA","LEFT",0,-25,25,-1,-14.567153416261,NA,0.99,0.957446808510638
"238",24,"BIH_PIH_1_18","coda-onset",NA,"control",75,16,3,949,18,"test_onset",852567,443,"onset_syllable",NA,"IH","LEFT",0,2,14,0.142857142857143,3.43284658373896,NA,0.99,0.957446808510638
"239",24,"BAA_PAA_3_05","coda-onset",NA,"control",75,25,2,811,5,"test_onset",854387,444,"onset_syllable",NA,"AA","LEFT",0,-20,25,-0.8,-9.56715341626104,NA,0.99,0.957446808510638
"240",32,"UHB_UHP_5_16","coda-onset",NA,"control",83,8,1,2349,16,"test_coda",276280,204,"coda_syllable",NA,"UH","LEFT",1,8,22,0.363636363636364,1.43284658373896,NA,0.96,1
"241",32,"AHB_AHP_3_30","coda-onset",NA,"control",83,14,3,1520,30,"test_coda",278799,205,"coda_syllable",NA,"AH","LEFT",1,16,16,1,15.432846583739,NA,0.96,1
"242",32,"UHB_UHP_5_04","coda-onset",NA,"control",75,8,2,1259,4,"test_coda",281064,206,"coda_syllable",NA,"UH","LEFT",0,-4,8,-0.5,-10.567153416261,NA,0.96,1
"243",32,"UHB_UHP_5_20","coda-onset",NA,"control",83,8,2,931,20,"test_coda",283000,207,"coda_syllable",NA,"UH","LEFT",1,12,22,0.545454545454545,5.43284658373896,NA,0.96,1
"244",32,"IHB_IHP_5_04","coda-onset",NA,"control",75,7,1,869,4,"test_coda",284880,208,"coda_syllable",NA,"IH","LEFT",0,-3,7,-0.428571428571429,-10.567153416261,NA,0.96,1
"245",32,"AAB_AAP_1_25","coda-onset",NA,"control",83,11,3,1099,25,"test_coda",286983,209,"coda_syllable",NA,"AA","LEFT",1,14,19,0.736842105263158,10.432846583739,NA,0.96,1
"246",32,"UHB_UHP_5_25","coda-onset",NA,"control",83,8,3,1091,25,"test_coda",289079,210,"coda_syllable",NA,"UH","LEFT",1,17,22,0.772727272727273,10.432846583739,NA,0.96,1
"247",32,"AAB_AAP_1_25","coda-onset",NA,"control",83,11,1,979,25,"test_coda",291063,211,"coda_syllable",NA,"AA","LEFT",1,14,19,0.736842105263158,10.432846583739,NA,0.96,1
"248",32,"AAB_AAP_1_20","coda-onset",NA,"control",83,11,2,1061,20,"test_coda",293119,212,"coda_syllable",NA,"AA","LEFT",1,9,19,0.473684210526316,5.43284658373896,NA,0.96,1
"249",32,"AAB_AAP_1_00","coda-onset",NA,"control",75,11,3,840,0,"test_coda",294959,213,"coda_syllable",NA,"AA","LEFT",0,-11,11,-1,-14.567153416261,NA,0.96,1
"250",32,"AHB_AHP_3_25","coda-onset",NA,"control",83,14,1,1160,25,"test_coda",297128,214,"coda_syllable",NA,"AH","LEFT",1,11,16,0.6875,10.432846583739,NA,0.96,1
"251",32,"AAB_AAP_1_25","coda-onset",NA,"control",83,11,2,1011,25,"test_coda",299135,215,"coda_syllable",NA,"AA","LEFT",1,14,19,0.736842105263158,10.432846583739,NA,0.96,1
"252",32,"IHB_IHP_5_13","coda-onset",NA,"control",83,7,2,1000,13,"test_coda",301136,216,"coda_syllable",NA,"IH","LEFT",1,6,23,0.260869565217391,-1.56715341626104,NA,0.96,1
"253",32,"AAB_AAP_1_13","coda-onset",NA,"control",83,11,1,1088,13,"test_coda",303223,217,"coda_syllable",NA,"AA","LEFT",1,2,19,0.105263157894737,-1.56715341626104,NA,0.96,1
"254",32,"AAB_AAP_1_07","coda-onset",NA,"control",75,11,1,840,7,"test_coda",305063,218,"coda_syllable",NA,"AA","LEFT",0,-4,11,-0.363636363636364,-7.56715341626104,NA,0.96,1
"255",32,"AHB_AHP_3_07","coda-onset",NA,"control",75,14,1,1091,7,"test_coda",307151,219,"coda_syllable",NA,"AH","LEFT",0,-7,14,-0.5,-7.56715341626104,NA,0.96,1
"256",32,"UHB_UHP_5_09","coda-onset",NA,"control",83,8,1,1040,9,"test_coda",309192,220,"coda_syllable",NA,"UH","LEFT",1,1,22,0.0454545454545455,-5.56715341626104,NA,0.96,1
"257",32,"AHB_AHP_3_20","coda-onset",NA,"control",83,14,1,971,20,"test_coda",311167,221,"coda_syllable",NA,"AH","LEFT",1,6,16,0.375,5.43284658373896,NA,0.96,1
"258",32,"UHB_UHP_5_11","coda-onset",NA,"control",83,8,2,1000,11,"test_coda",313167,222,"coda_syllable",NA,"UH","LEFT",1,3,22,0.136363636363636,-3.56715341626104,NA,0.96,1
"259",32,"IHB_IHP_5_20","coda-onset",NA,"control",83,7,1,949,20,"test_coda",315111,223,"coda_syllable",NA,"IH","LEFT",1,13,23,0.565217391304348,5.43284658373896,NA,0.96,1
"260",32,"IHB_IHP_5_11","coda-onset",NA,"control",83,7,1,1000,11,"test_coda",317111,224,"coda_syllable",NA,"IH","LEFT",1,4,23,0.173913043478261,-3.56715341626104,NA,0.96,1
"261",32,"IHB_IHP_5_11","coda-onset",NA,"control",83,7,2,811,11,"test_coda",318927,225,"coda_syllable",NA,"IH","LEFT",1,4,23,0.173913043478261,-3.56715341626104,NA,0.96,1
"262",32,"AAB_AAP_1_30","coda-onset",NA,"control",83,11,3,989,30,"test_coda",320920,226,"coda_syllable",NA,"AA","LEFT",1,19,19,1,15.432846583739,NA,0.96,1
"263",32,"AAB_AAP_1_20","coda-onset",NA,"control",83,11,3,960,20,"test_coda",322888,227,"coda_syllable",NA,"AA","LEFT",1,9,19,0.473684210526316,5.43284658373896,NA,0.96,1
"264",32,"AHB_AHP_3_09","coda-onset",NA,"control",83,14,2,1000,9,"test_coda",324888,228,"coda_syllable",NA,"AH","LEFT",1,-5,14,-0.357142857142857,-5.56715341626104,NA,0.96,1
"265",32,"AAB_AAP_1_00","coda-onset",NA,"control",75,11,1,859,0,"test_coda",326743,229,"coda_syllable",NA,"AA","LEFT",0,-11,11,-1,-14.567153416261,NA,0.96,1
"266",32,"UHB_UHP_5_13","coda-onset",NA,"control",83,8,3,1181,13,"test_coda",328927,230,"coda_syllable",NA,"UH","LEFT",1,5,22,0.227272727272727,-1.56715341626104,NA,0.96,1
"267",32,"AAB_AAP_1_07","coda-onset",NA,"control",75,11,3,960,7,"test_coda",330880,231,"coda_syllable",NA,"AA","LEFT",0,-4,11,-0.363636363636364,-7.56715341626104,NA,0.96,1
"268",32,"AAB_AAP_1_20","coda-onset",NA,"control",83,11,1,909,20,"test_coda",332791,232,"coda_syllable",NA,"AA","LEFT",1,9,19,0.473684210526316,5.43284658373896,NA,0.96,1
"269",32,"AAB_AAP_1_04","coda-onset",NA,"control",75,11,1,1011,4,"test_coda",334808,233,"coda_syllable",NA,"AA","LEFT",0,-7,11,-0.636363636363636,-10.567153416261,NA,0.96,1
"270",32,"IHB_IHP_5_07","coda-onset",NA,"control",83,7,1,1040,7,"test_coda",336847,234,"coda_syllable",NA,"IH","LEFT",1,0,7,0,-7.56715341626104,NA,0.96,1
"271",32,"UHB_UHP_5_07","coda-onset",NA,"control",83,8,2,1000,7,"test_coda",338847,235,"coda_syllable",NA,"UH","LEFT",1,-1,8,-0.125,-7.56715341626104,NA,0.96,1
"272",32,"IHB_IHP_5_00","coda-onset",NA,"control",75,7,3,811,0,"test_coda",340655,236,"coda_syllable",NA,"IH","LEFT",0,-7,7,-1,-14.567153416261,NA,0.96,1
"273",32,"AHB_AHP_3_11","coda-onset",NA,"control",83,14,1,939,11,"test_coda",342599,237,"coda_syllable",NA,"AH","LEFT",1,-3,14,-0.214285714285714,-3.56715341626104,NA,0.96,1
"274",32,"AAB_AAP_1_04","coda-onset",NA,"control",75,11,2,939,4,"test_coda",344544,238,"coda_syllable",NA,"AA","LEFT",0,-7,11,-0.636363636363636,-10.567153416261,NA,0.96,1
"275",32,"UHB_UHP_5_13","coda-onset",NA,"control",83,8,2,952,13,"test_coda",346495,239,"coda_syllable",NA,"UH","LEFT",1,5,22,0.227272727272727,-1.56715341626104,NA,0.96,1
"276",32,"UHB_UHP_5_11","coda-onset",NA,"control",83,8,3,859,11,"test_coda",348351,240,"coda_syllable",NA,"UH","LEFT",1,3,22,0.136363636363636,-3.56715341626104,NA,0.96,1
"277",32,"UHB_UHP_5_20","coda-onset",NA,"control",83,8,3,840,20,"test_coda",350200,241,"coda_syllable",NA,"UH","LEFT",1,12,22,0.545454545454545,5.43284658373896,NA,0.96,1
"278",32,"AAB_AAP_1_00","coda-onset",NA,"control",75,11,2,909,0,"test_coda",352120,242,"coda_syllable",NA,"AA","LEFT",0,-11,11,-1,-14.567153416261,NA,0.96,1
"279",32,"AAB_AAP_1_16","coda-onset",NA,"control",83,11,2,869,16,"test_coda",353999,243,"coda_syllable",NA,"AA","LEFT",1,5,19,0.263157894736842,1.43284658373896,NA,0.96,1
"280",32,"UHB_UHP_5_09","coda-onset",NA,"control",83,8,3,960,9,"test_coda",355967,244,"coda_syllable",NA,"UH","LEFT",1,1,22,0.0454545454545455,-5.56715341626104,NA,0.96,1
"281",32,"IHB_IHP_5_13","coda-onset",NA,"control",83,7,3,909,13,"test_coda",357881,245,"coda_syllable",NA,"IH","LEFT",1,6,23,0.260869565217391,-1.56715341626104,NA,0.96,1
"282",32,"UHB_UHP_5_30","coda-onset",NA,"control",83,8,1,891,30,"test_coda",359775,246,"coda_syllable",NA,"UH","LEFT",1,22,22,1,15.432846583739,NA,0.96,1
"283",32,"AHB_AHP_3_00","coda-onset",NA,"control",75,14,3,779,0,"test_coda",361559,247,"coda_syllable",NA,"AH","LEFT",0,-14,14,-1,-14.567153416261,NA,0.96,1
"284",32,"AHB_AHP_3_07","coda-onset",NA,"control",83,14,2,1029,7,"test_coda",363591,248,"coda_syllable",NA,"AH","LEFT",1,-7,14,-0.5,-7.56715341626104,NA,0.96,1
"285",32,"AAB_AAP_1_11","coda-onset",NA,"control",75,11,1,1021,11,"test_coda",365615,249,"coda_syllable",NA,"AA","LEFT",0,0,11,0,-3.56715341626104,NA,0.96,1
"286",32,"AHB_AHP_3_16","coda-onset",NA,"control",83,14,2,1000,16,"test_coda",367615,250,"coda_syllable",NA,"AH","LEFT",1,2,16,0.125,1.43284658373896,NA,0.96,1
"287",32,"IHB_IHP_5_20","coda-onset",NA,"control",83,7,3,949,20,"test_coda",369559,251,"coda_syllable",NA,"IH","LEFT",1,13,23,0.565217391304348,5.43284658373896,NA,0.96,1
"288",32,"AAB_AAP_1_07","coda-onset",NA,"control",75,11,2,869,7,"test_coda",371432,252,"coda_syllable",NA,"AA","LEFT",0,-4,11,-0.363636363636364,-7.56715341626104,NA,0.96,1
"289",32,"IHB_IHP_5_07","coda-onset",NA,"control",83,7,2,1000,7,"test_coda",373439,253,"coda_syllable",NA,"IH","LEFT",1,0,7,0,-7.56715341626104,NA,0.96,1
"290",32,"AHB_AHP_3_07","coda-onset",NA,"control",83,14,3,1160,7,"test_coda",375600,254,"coda_syllable",NA,"AH","LEFT",1,-7,14,-0.5,-7.56715341626104,NA,0.96,1
"291",32,"AHB_AHP_3_04","coda-onset",NA,"control",83,14,3,949,4,"test_coda",377560,255,"coda_syllable",NA,"AH","LEFT",1,-10,14,-0.714285714285714,-10.567153416261,NA,0.96,1
"292",32,"AHB_AHP_3_16","coda-onset",NA,"control",83,14,1,829,16,"test_coda",379399,256,"coda_syllable",NA,"AH","LEFT",1,2,16,0.125,1.43284658373896,NA,0.96,1
"293",32,"IHB_IHP_5_25","coda-onset",NA,"control",83,7,3,851,25,"test_coda",381255,257,"coda_syllable",NA,"IH","LEFT",1,18,23,0.782608695652174,10.432846583739,NA,0.96,1
"294",32,"AAB_AAP_1_30","coda-onset",NA,"control",83,11,2,939,30,"test_coda",383200,258,"coda_syllable",NA,"AA","LEFT",1,19,19,1,15.432846583739,NA,0.96,1
"295",32,"IHB_IHP_5_30","coda-onset",NA,"control",83,7,1,869,30,"test_coda",385071,259,"coda_syllable",NA,"IH","LEFT",1,23,23,1,15.432846583739,NA,0.96,1
"296",32,"UHB_UHP_5_30","coda-onset",NA,"control",83,8,2,880,30,"test_coda",386951,260,"coda_syllable",NA,"UH","LEFT",1,22,22,1,15.432846583739,NA,0.96,1
"297",32,"AAB_AAP_1_04","coda-onset",NA,"control",75,11,3,901,4,"test_coda",388856,261,"coda_syllable",NA,"AA","LEFT",0,-7,11,-0.636363636363636,-10.567153416261,NA,0.96,1
"298",32,"IHB_IHP_5_16","coda-onset",NA,"control",83,7,3,1000,16,"test_coda",390855,262,"coda_syllable",NA,"IH","LEFT",1,9,23,0.391304347826087,1.43284658373896,NA,0.96,1
"299",32,"UHB_UHP_5_04","coda-onset",NA,"control",83,8,3,939,4,"test_coda",392791,263,"coda_syllable",NA,"UH","LEFT",1,-4,8,-0.5,-10.567153416261,NA,0.96,1
"300",32,"IHB_IHP_5_09","coda-onset",NA,"control",83,7,1,960,9,"test_coda",394759,264,"coda_syllable",NA,"IH","LEFT",1,2,23,0.0869565217391304,-5.56715341626104,NA,0.96,1
"301",32,"AHB_AHP_3_09","coda-onset",NA,"control",83,14,3,901,9,"test_coda",396655,265,"coda_syllable",NA,"AH","LEFT",1,-5,14,-0.357142857142857,-5.56715341626104,NA,0.96,1
"302",32,"UHB_UHP_5_04","coda-onset",NA,"control",75,8,1,1219,4,"test_coda",398880,266,"coda_syllable",NA,"UH","LEFT",0,-4,8,-0.5,-10.567153416261,NA,0.96,1
"303",32,"IHB_IHP_5_16","coda-onset",NA,"control",83,7,1,971,16,"test_coda",400855,267,"coda_syllable",NA,"IH","LEFT",1,9,23,0.391304347826087,1.43284658373896,NA,0.96,1
"304",32,"AHB_AHP_3_04","coda-onset",NA,"control",75,14,2,1069,4,"test_coda",402927,268,"coda_syllable",NA,"AH","LEFT",0,-10,14,-0.714285714285714,-10.567153416261,NA,0.96,1
"305",32,"UHB_UHP_5_11","coda-onset",NA,"control",83,8,1,960,11,"test_coda",404879,269,"coda_syllable",NA,"UH","LEFT",1,3,22,0.136363636363636,-3.56715341626104,NA,0.96,1
"306",32,"IHB_IHP_5_09","coda-onset",NA,"control",83,7,2,931,9,"test_coda",406816,270,"coda_syllable",NA,"IH","LEFT",1,2,23,0.0869565217391304,-5.56715341626104,NA,0.96,1
"307",32,"AHB_AHP_3_00","coda-onset",NA,"control",75,14,2,899,0,"test_coda",408720,271,"coda_syllable",NA,"AH","LEFT",0,-14,14,-1,-14.567153416261,NA,0.96,1
"308",32,"AHB_AHP_3_11","coda-onset",NA,"control",83,14,3,931,11,"test_coda",410640,272,"coda_syllable",NA,"AH","LEFT",1,-3,14,-0.214285714285714,-3.56715341626104,NA,0.96,1
"309",32,"IHB_IHP_5_11","coda-onset",NA,"control",83,7,3,920,11,"test_coda",412568,273,"coda_syllable",NA,"IH","LEFT",1,4,23,0.173913043478261,-3.56715341626104,NA,0.96,1
"310",32,"AAB_AAP_1_13","coda-onset",NA,"control",83,11,3,1029,13,"test_coda",414592,274,"coda_syllable",NA,"AA","LEFT",1,2,19,0.105263157894737,-1.56715341626104,NA,0.96,1
"311",32,"AHB_AHP_3_11","coda-onset",NA,"control",83,14,2,920,11,"test_coda",416512,275,"coda_syllable",NA,"AH","LEFT",1,-3,14,-0.214285714285714,-3.56715341626104,NA,0.96,1
"312",32,"UHB_UHP_5_20","coda-onset",NA,"control",83,8,1,811,20,"test_coda",418320,276,"coda_syllable",NA,"UH","LEFT",1,12,22,0.545454545454545,5.43284658373896,NA,0.96,1
"313",32,"AHB_AHP_3_04","coda-onset",NA,"control",83,14,1,1280,4,"test_coda",420591,277,"coda_syllable",NA,"AH","LEFT",1,-10,14,-0.714285714285714,-10.567153416261,NA,0.96,1
"314",32,"UHB_UHP_5_16","coda-onset",NA,"control",83,8,2,851,16,"test_coda",422456,278,"coda_syllable",NA,"UH","LEFT",1,8,22,0.363636363636364,1.43284658373896,NA,0.96,1
"315",32,"AAB_AAP_1_09","coda-onset",NA,"control",75,11,2,1048,9,"test_coda",424504,279,"coda_syllable",NA,"AA","LEFT",0,-2,11,-0.181818181818182,-5.56715341626104,NA,0.96,1
"316",32,"AHB_AHP_3_13","coda-onset",NA,"control",83,14,1,912,13,"test_coda",426416,280,"coda_syllable",NA,"AH","LEFT",1,-1,14,-0.0714285714285714,-1.56715341626104,NA,0.96,1
"317",32,"UHB_UHP_5_00","coda-onset",NA,"control",75,8,1,819,0,"test_coda",428232,281,"coda_syllable",NA,"UH","LEFT",0,-8,8,-1,-14.567153416261,NA,0.96,1
"318",32,"IHB_IHP_5_04","coda-onset",NA,"control",75,7,3,1120,4,"test_coda",430360,282,"coda_syllable",NA,"IH","LEFT",0,-3,7,-0.428571428571429,-10.567153416261,NA,0.96,1
"319",32,"IHB_IHP_5_09","coda-onset",NA,"control",83,7,3,899,9,"test_coda",432264,283,"coda_syllable",NA,"IH","LEFT",1,2,23,0.0869565217391304,-5.56715341626104,NA,0.96,1
"320",32,"IHB_IHP_5_20","coda-onset",NA,"control",83,7,2,811,20,"test_coda",434071,284,"coda_syllable",NA,"IH","LEFT",1,13,23,0.565217391304348,5.43284658373896,NA,0.96,1
"321",32,"AAB_AAP_1_16","coda-onset",NA,"control",83,11,1,1331,16,"test_coda",436408,285,"coda_syllable",NA,"AA","LEFT",1,5,19,0.263157894736842,1.43284658373896,NA,0.96,1
"322",32,"AHB_AHP_3_25","coda-onset",NA,"control",83,14,3,899,25,"test_coda",438303,286,"coda_syllable",NA,"AH","LEFT",1,11,16,0.6875,10.432846583739,NA,0.96,1
"323",32,"AHB_AHP_3_30","coda-onset",NA,"control",83,14,1,771,30,"test_coda",440071,287,"coda_syllable",NA,"AH","LEFT",1,16,16,1,15.432846583739,NA,0.96,1
"324",32,"AHB_AHP_3_20","coda-onset",NA,"control",83,14,2,709,20,"test_coda",441784,288,"coda_syllable",NA,"AH","LEFT",1,6,16,0.375,5.43284658373896,NA,0.96,1
"325",32,"IHB_IHP_5_25","coda-onset",NA,"control",83,7,1,880,25,"test_coda",443664,289,"coda_syllable",NA,"IH","LEFT",1,18,23,0.782608695652174,10.432846583739,NA,0.96,1
"326",32,"AHB_AHP_3_30","coda-onset",NA,"control",83,14,2,851,30,"test_coda",445512,290,"coda_syllable",NA,"AH","LEFT",1,16,16,1,15.432846583739,NA,0.96,1
"327",32,"UHB_UHP_5_09","coda-onset",NA,"control",83,8,2,869,9,"test_coda",447384,291,"coda_syllable",NA,"UH","LEFT",1,1,22,0.0454545454545455,-5.56715341626104,NA,0.96,1
"328",32,"UHB_UHP_5_07","coda-onset",NA,"control",83,8,3,731,7,"test_coda",449111,292,"coda_syllable",NA,"UH","LEFT",1,-1,8,-0.125,-7.56715341626104,NA,0.96,1
"329",32,"IHB_IHP_5_13","coda-onset",NA,"control",75,7,1,1000,13,"test_coda",451111,293,"coda_syllable",NA,"IH","LEFT",0,6,23,0.260869565217391,-1.56715341626104,NA,0.96,1
"330",32,"AHB_AHP_3_13","coda-onset",NA,"control",83,14,2,909,13,"test_coda",453023,294,"coda_syllable",NA,"AH","LEFT",1,-1,14,-0.0714285714285714,-1.56715341626104,NA,0.96,1
"331",32,"IHB_IHP_5_30","coda-onset",NA,"control",83,7,3,880,30,"test_coda",454903,295,"coda_syllable",NA,"IH","LEFT",1,23,23,1,15.432846583739,NA,0.96,1
"332",32,"AAB_AAP_1_09","coda-onset",NA,"control",75,11,3,901,9,"test_coda",456807,296,"coda_syllable",NA,"AA","LEFT",0,-2,11,-0.181818181818182,-5.56715341626104,NA,0.96,1
"333",32,"AHB_AHP_3_25","coda-onset",NA,"control",83,14,2,880,25,"test_coda",458688,297,"coda_syllable",NA,"AH","LEFT",1,11,16,0.6875,10.432846583739,NA,0.96,1
"334",32,"UHB_UHP_5_16","coda-onset",NA,"control",83,8,3,869,16,"test_coda",460559,298,"coda_syllable",NA,"UH","LEFT",1,8,22,0.363636363636364,1.43284658373896,NA,0.96,1
"335",32,"AHB_AHP_3_00","coda-onset",NA,"control",75,14,1,800,0,"test_coda",462367,299,"coda_syllable",NA,"AH","LEFT",0,-14,14,-1,-14.567153416261,NA,0.96,1
"336",32,"IHB_IHP_5_00","coda-onset",NA,"control",75,7,1,869,0,"test_coda",464240,300,"coda_syllable",NA,"IH","LEFT",0,-7,7,-1,-14.567153416261,NA,0.96,1
"337",32,"AAB_AAP_1_13","coda-onset",NA,"control",75,11,2,1069,13,"test_coda",466311,301,"coda_syllable",NA,"AA","LEFT",0,2,19,0.105263157894737,-1.56715341626104,NA,0.96,1
"338",32,"AAB_AAP_1_30","coda-onset",NA,"control",83,11,1,960,30,"test_coda",468271,302,"coda_syllable",NA,"AA","LEFT",1,19,19,1,15.432846583739,NA,0.96,1
"339",32,"IHB_IHP_5_00","coda-onset",NA,"control",75,7,2,829,0,"test_coda",470104,303,"coda_syllable",NA,"IH","LEFT",0,-7,7,-1,-14.567153416261,NA,0.96,1
"340",32,"AHB_AHP_3_13","coda-onset",NA,"control",83,14,3,1080,13,"test_coda",472183,304,"coda_syllable",NA,"AH","LEFT",1,-1,14,-0.0714285714285714,-1.56715341626104,NA,0.96,1
"341",32,"IHB_IHP_5_04","coda-onset",NA,"control",83,7,2,1000,4,"test_coda",474184,305,"coda_syllable",NA,"IH","LEFT",1,-3,7,-0.428571428571429,-10.567153416261,NA,0.96,1
"342",32,"UHB_UHP_5_25","coda-onset",NA,"control",83,8,2,1051,25,"test_coda",476231,306,"coda_syllable",NA,"UH","LEFT",1,17,22,0.772727272727273,10.432846583739,NA,0.96,1
"343",32,"IHB_IHP_5_07","coda-onset",NA,"control",83,7,3,931,7,"test_coda",478168,307,"coda_syllable",NA,"IH","LEFT",1,0,7,0,-7.56715341626104,NA,0.96,1
"344",32,"AAB_AAP_1_09","coda-onset",NA,"control",83,11,1,1051,9,"test_coda",480215,308,"coda_syllable",NA,"AA","LEFT",1,-2,11,-0.181818181818182,-5.56715341626104,NA,0.96,1
"345",32,"AAB_AAP_1_11","coda-onset",NA,"control",83,11,3,1099,11,"test_coda",482311,309,"coda_syllable",NA,"AA","LEFT",1,0,11,0,-3.56715341626104,NA,0.96,1
"346",32,"AHB_AHP_3_09","coda-onset",NA,"control",83,14,1,901,9,"test_coda",484216,310,"coda_syllable",NA,"AH","LEFT",1,-5,14,-0.357142857142857,-5.56715341626104,NA,0.96,1
"347",32,"UHB_UHP_5_30","coda-onset",NA,"control",83,8,3,808,30,"test_coda",486023,311,"coda_syllable",NA,"UH","LEFT",1,22,22,1,15.432846583739,NA,0.96,1
"348",32,"UHB_UHP_5_00","coda-onset",NA,"control",75,8,2,840,0,"test_coda",487863,312,"coda_syllable",NA,"UH","LEFT",0,-8,8,-1,-14.567153416261,NA,0.96,1
"349",32,"UHB_UHP_5_13","coda-onset",NA,"control",83,8,1,861,13,"test_coda",489720,313,"coda_syllable",NA,"UH","LEFT",1,5,22,0.227272727272727,-1.56715341626104,NA,0.96,1
"350",32,"IHB_IHP_5_16","coda-onset",NA,"control",83,7,2,829,16,"test_coda",491551,314,"coda_syllable",NA,"IH","LEFT",1,9,23,0.391304347826087,1.43284658373896,NA,0.96,1
"351",32,"AHB_AHP_3_16","coda-onset",NA,"control",83,14,3,931,16,"test_coda",493488,315,"coda_syllable",NA,"AH","LEFT",1,2,16,0.125,1.43284658373896,NA,0.96,1
"352",32,"IHB_IHP_5_25","coda-onset",NA,"control",83,7,2,840,25,"test_coda",495328,316,"coda_syllable",NA,"IH","LEFT",1,18,23,0.782608695652174,10.432846583739,NA,0.96,1
"353",32,"UHB_UHP_5_00","coda-onset",NA,"control",75,8,3,829,0,"test_coda",497151,317,"coda_syllable",NA,"UH","LEFT",0,-8,8,-1,-14.567153416261,NA,0.96,1
"354",32,"AHB_AHP_3_20","coda-onset",NA,"control",83,14,3,800,20,"test_coda",498952,318,"coda_syllable",NA,"AH","LEFT",1,6,16,0.375,5.43284658373896,NA,0.96,1
"355",32,"AAB_AAP_1_16","coda-onset",NA,"control",83,11,3,840,16,"test_coda",500800,319,"coda_syllable",NA,"AA","LEFT",1,5,19,0.263157894736842,1.43284658373896,NA,0.96,1
"356",32,"IHB_IHP_5_30","coda-onset",NA,"control",83,7,2,819,30,"test_coda",502624,320,"coda_syllable",NA,"IH","LEFT",1,23,23,1,15.432846583739,NA,0.96,1
"357",32,"UHB_UHP_5_25","coda-onset",NA,"control",83,8,1,741,25,"test_coda",504370,321,"coda_syllable",NA,"UH","LEFT",1,17,22,0.772727272727273,10.432846583739,NA,0.96,1
"358",32,"AAB_AAP_1_11","coda-onset",NA,"control",83,11,2,808,11,"test_coda",506184,322,"coda_syllable",NA,"AA","LEFT",1,0,11,0,-3.56715341626104,NA,0.96,1
"359",32,"UHB_UHP_5_07","coda-onset",NA,"control",83,8,1,800,7,"test_coda",507984,323,"coda_syllable",NA,"UH","LEFT",1,-1,8,-0.125,-7.56715341626104,NA,0.96,1
"360",32,"BUH_PUH_3_20","coda-onset",NA,"control",83,21,1,1451,20,"test_onset",522560,325,"onset_syllable",NA,"UH","LEFT",1,-1,21,-0.0476190476190476,5.43284658373896,NA,0.96,1
"361",32,"BUH_PUH_3_15","coda-onset",NA,"control",83,21,3,939,15,"test_onset",524504,326,"onset_syllable",NA,"UH","LEFT",1,-6,21,-0.285714285714286,0.432846583738957,NA,0.96,1
"362",32,"BUH_PUH_3_18","coda-onset",NA,"control",75,21,1,792,18,"test_onset",526295,327,"onset_syllable",NA,"UH","LEFT",0,-3,21,-0.142857142857143,3.43284658373896,NA,0.96,1
"363",32,"BAA_PAA_3_30","coda-onset",NA,"control",83,25,3,808,30,"test_onset",528104,328,"onset_syllable",NA,"AA","LEFT",1,5,5,1,15.432846583739,NA,0.96,1
"364",32,"BAA_PAA_3_27","coda-onset",NA,"control",83,25,2,720,27,"test_onset",529823,329,"onset_syllable",NA,"AA","LEFT",1,2,5,0.4,12.432846583739,NA,0.96,1
"365",32,"BIH_PIH_1_20","coda-onset",NA,"control",83,16,3,891,20,"test_onset",531711,330,"onset_syllable",NA,"IH","LEFT",1,4,14,0.285714285714286,5.43284658373896,NA,0.96,1
"366",32,"BIH_PIH_1_05","coda-onset",NA,"control",75,16,1,771,5,"test_onset",533480,331,"onset_syllable",NA,"IH","LEFT",0,-11,16,-0.6875,-9.56715341626104,NA,0.96,1
"367",32,"BAA_PAA_3_24","coda-onset",NA,"control",83,25,1,819,24,"test_onset",535304,332,"onset_syllable",NA,"AA","LEFT",1,-1,25,-0.04,9.43284658373896,NA,0.96,1
"368",32,"BUH_PUH_3_05","coda-onset",NA,"control",75,21,3,781,5,"test_onset",537088,333,"onset_syllable",NA,"UH","LEFT",0,-16,21,-0.761904761904762,-9.56715341626104,NA,0.96,1
"369",32,"BAA_PAA_3_05","coda-onset",NA,"control",75,25,2,720,5,"test_onset",538808,334,"onset_syllable",NA,"AA","LEFT",0,-20,25,-0.8,-9.56715341626104,NA,0.96,1
"370",32,"BAH_PAH_3_05","coda-onset",NA,"control",75,23,1,709,5,"test_onset",540520,335,"onset_syllable",NA,"AH","LEFT",0,-18,23,-0.782608695652174,-9.56715341626104,NA,0.96,1
"371",32,"BUH_PUH_3_22","coda-onset",NA,"control",83,21,2,640,22,"test_onset",542168,336,"onset_syllable",NA,"UH","LEFT",1,1,9,0.111111111111111,7.43284658373896,NA,0.96,1
"372",32,"BIH_PIH_1_15","coda-onset",NA,"control",75,16,1,699,15,"test_onset",543864,337,"onset_syllable",NA,"IH","LEFT",0,-1,16,-0.0625,0.432846583738957,NA,0.96,1
"373",32,"BIH_PIH_1_15","coda-onset",NA,"control",83,16,2,821,15,"test_onset",545687,338,"onset_syllable",NA,"IH","LEFT",1,-1,16,-0.0625,0.432846583738957,NA,0.96,1
"374",32,"BUH_PUH_3_20","coda-onset",NA,"control",83,21,3,760,20,"test_onset",547443,339,"onset_syllable",NA,"UH","LEFT",1,-1,21,-0.0476190476190476,5.43284658373896,NA,0.96,1
"375",32,"BAA_PAA_3_27","coda-onset",NA,"control",83,25,1,891,27,"test_onset",549337,340,"onset_syllable",NA,"AA","LEFT",1,2,5,0.4,12.432846583739,NA,0.96,1
"376",32,"BIH_PIH_1_22","coda-onset",NA,"control",83,16,2,720,22,"test_onset",551056,341,"onset_syllable",NA,"IH","LEFT",1,6,14,0.428571428571429,7.43284658373896,NA,0.96,1
"377",32,"BAH_PAH_3_20","coda-onset",NA,"control",83,23,3,819,20,"test_onset",552871,342,"onset_syllable",NA,"AH","LEFT",1,-3,23,-0.130434782608696,5.43284658373896,NA,0.96,1
"378",32,"BIH_PIH_1_18","coda-onset",NA,"control",83,16,1,760,18,"test_onset",554632,343,"onset_syllable",NA,"IH","LEFT",1,2,14,0.142857142857143,3.43284658373896,NA,0.96,1
"379",32,"BIH_PIH_1_30","coda-onset",NA,"control",83,16,1,691,30,"test_onset",556328,344,"onset_syllable",NA,"IH","LEFT",1,14,14,1,15.432846583739,NA,0.96,1
"380",32,"BAH_PAH_3_20","coda-onset",NA,"control",83,23,2,789,20,"test_onset",558120,345,"onset_syllable",NA,"AH","LEFT",1,-3,23,-0.130434782608696,5.43284658373896,NA,0.96,1
"381",32,"BIH_PIH_1_00","coda-onset",NA,"control",75,16,3,829,0,"test_onset",559952,346,"onset_syllable",NA,"IH","LEFT",0,-16,16,-1,-14.567153416261,NA,0.96,1
"382",32,"BAH_PAH_3_18","coda-onset",NA,"control",75,23,3,800,18,"test_onset",561760,347,"onset_syllable",NA,"AH","LEFT",0,-5,23,-0.217391304347826,3.43284658373896,NA,0.96,1
"383",32,"BAH_PAH_3_24","coda-onset",NA,"control",83,23,2,851,24,"test_onset",563617,348,"onset_syllable",NA,"AH","LEFT",1,1,7,0.142857142857143,9.43284658373896,NA,0.96,1
"384",32,"BAH_PAH_3_22","coda-onset",NA,"control",83,23,3,749,22,"test_onset",565368,349,"onset_syllable",NA,"AH","LEFT",1,-1,23,-0.0434782608695652,7.43284658373896,NA,0.96,1
"385",32,"BAA_PAA_3_22","coda-onset",NA,"control",83,25,1,840,22,"test_onset",567217,350,"onset_syllable",NA,"AA","LEFT",1,-3,25,-0.12,7.43284658373896,NA,0.96,1
"386",32,"BIH_PIH_1_27","coda-onset",NA,"control",83,16,2,760,27,"test_onset",568976,351,"onset_syllable",NA,"IH","LEFT",1,11,14,0.785714285714286,12.432846583739,NA,0.96,1
"387",32,"BUH_PUH_3_10","coda-onset",NA,"control",75,21,3,869,10,"test_onset",570848,352,"onset_syllable",NA,"UH","LEFT",0,-11,21,-0.523809523809524,-4.56715341626104,NA,0.96,1
"388",32,"BAA_PAA_3_20","coda-onset",NA,"control",75,25,3,749,20,"test_onset",572600,353,"onset_syllable",NA,"AA","LEFT",0,-5,25,-0.2,5.43284658373896,NA,0.96,1
"389",32,"BUH_PUH_3_10","coda-onset",NA,"control",75,21,1,760,10,"test_onset",574368,354,"onset_syllable",NA,"UH","LEFT",0,-11,21,-0.523809523809524,-4.56715341626104,NA,0.96,1
"390",32,"BIH_PIH_1_18","coda-onset",NA,"control",83,16,3,909,18,"test_onset",576272,355,"onset_syllable",NA,"IH","LEFT",1,2,14,0.142857142857143,3.43284658373896,NA,0.96,1
"391",32,"BAH_PAH_3_10","coda-onset",NA,"control",75,23,1,920,10,"test_onset",578200,356,"onset_syllable",NA,"AH","LEFT",0,-13,23,-0.565217391304348,-4.56715341626104,NA,0.96,1
"392",32,"BUH_PUH_3_22","coda-onset",NA,"control",83,21,1,811,22,"test_onset",580020,357,"onset_syllable",NA,"UH","LEFT",1,1,9,0.111111111111111,7.43284658373896,NA,0.96,1
"393",32,"BUH_PUH_3_18","coda-onset",NA,"control",83,21,3,861,18,"test_onset",581888,358,"onset_syllable",NA,"UH","LEFT",1,-3,21,-0.142857142857143,3.43284658373896,NA,0.96,1
"394",32,"BIH_PIH_1_22","coda-onset",NA,"control",83,16,1,971,22,"test_onset",583856,359,"onset_syllable",NA,"IH","LEFT",1,6,14,0.428571428571429,7.43284658373896,NA,0.96,1
"395",32,"BAH_PAH_3_20","coda-onset",NA,"control",83,23,1,1160,20,"test_onset",586016,360,"onset_syllable",NA,"AH","LEFT",1,-3,23,-0.130434782608696,5.43284658373896,NA,0.96,1
"396",32,"BAH_PAH_3_27","coda-onset",NA,"control",83,23,1,808,27,"test_onset",587824,361,"onset_syllable",NA,"AH","LEFT",1,4,7,0.571428571428571,12.432846583739,NA,0.96,1
"397",32,"BUH_PUH_3_00","coda-onset",NA,"control",75,21,3,771,0,"test_onset",589591,362,"onset_syllable",NA,"UH","LEFT",0,-21,21,-1,-14.567153416261,NA,0.96,1
"398",32,"BAA_PAA_3_05","coda-onset",NA,"control",75,25,1,731,5,"test_onset",591328,363,"onset_syllable",NA,"AA","LEFT",0,-20,25,-0.8,-9.56715341626104,NA,0.96,1
"399",32,"BAH_PAH_3_30","coda-onset",NA,"control",83,23,2,760,30,"test_onset",593088,364,"onset_syllable",NA,"AH","LEFT",1,7,7,1,15.432846583739,NA,0.96,1
"400",32,"BAA_PAA_3_27","coda-onset",NA,"control",83,25,3,749,27,"test_onset",594840,365,"onset_syllable",NA,"AA","LEFT",1,2,5,0.4,12.432846583739,NA,0.96,1
"401",32,"BAH_PAH_3_27","coda-onset",NA,"control",83,23,2,749,27,"test_onset",596600,366,"onset_syllable",NA,"AH","LEFT",1,4,7,0.571428571428571,12.432846583739,NA,0.96,1
"402",32,"BIH_PIH_1_18","coda-onset",NA,"control",83,16,2,819,18,"test_onset",598424,367,"onset_syllable",NA,"IH","LEFT",1,2,14,0.142857142857143,3.43284658373896,NA,0.96,1
"403",32,"BAH_PAH_3_05","coda-onset",NA,"control",75,23,3,752,5,"test_onset",600178,368,"onset_syllable",NA,"AH","LEFT",0,-18,23,-0.782608695652174,-9.56715341626104,NA,0.96,1
"404",32,"BAA_PAA_3_18","coda-onset",NA,"control",75,25,2,1019,18,"test_onset",602200,369,"onset_syllable",NA,"AA","LEFT",0,-7,25,-0.28,3.43284658373896,NA,0.96,1
"405",32,"BIH_PIH_1_05","coda-onset",NA,"control",75,16,3,752,5,"test_onset",603960,370,"onset_syllable",NA,"IH","LEFT",0,-11,16,-0.6875,-9.56715341626104,NA,0.96,1
"406",32,"BAH_PAH_3_05","coda-onset",NA,"control",75,23,2,720,5,"test_onset",605688,371,"onset_syllable",NA,"AH","LEFT",0,-18,23,-0.782608695652174,-9.56715341626104,NA,0.96,1
"407",32,"BAH_PAH_3_15","coda-onset",NA,"control",75,23,1,691,15,"test_onset",607399,372,"onset_syllable",NA,"AH","LEFT",0,-8,23,-0.347826086956522,0.432846583738957,NA,0.96,1
"408",32,"BUH_PUH_3_22","coda-onset",NA,"control",83,21,3,680,22,"test_onset",609088,373,"onset_syllable",NA,"UH","LEFT",1,1,9,0.111111111111111,7.43284658373896,NA,0.96,1
"409",32,"BAH_PAH_3_00","coda-onset",NA,"control",75,23,2,709,0,"test_onset",610792,374,"onset_syllable",NA,"AH","LEFT",0,-23,23,-1,-14.567153416261,NA,0.96,1
"410",32,"BAH_PAH_3_15","coda-onset",NA,"control",75,23,2,720,15,"test_onset",612513,375,"onset_syllable",NA,"AH","LEFT",0,-8,23,-0.347826086956522,0.432846583738957,NA,0.96,1
"411",32,"BAA_PAA_3_30","coda-onset",NA,"control",83,25,2,760,30,"test_onset",614272,376,"onset_syllable",NA,"AA","LEFT",1,5,5,1,15.432846583739,NA,0.96,1
"412",32,"BUH_PUH_3_00","coda-onset",NA,"control",75,21,2,661,0,"test_onset",615936,377,"onset_syllable",NA,"UH","LEFT",0,-21,21,-1,-14.567153416261,NA,0.96,1
"413",32,"BIH_PIH_1_24","coda-onset",NA,"control",83,16,3,869,24,"test_onset",617809,378,"onset_syllable",NA,"IH","LEFT",1,8,14,0.571428571428571,9.43284658373896,NA,0.96,1
"414",32,"BIH_PIH_1_22","coda-onset",NA,"control",75,16,3,640,22,"test_onset",619448,379,"onset_syllable",NA,"IH","LEFT",0,6,14,0.428571428571429,7.43284658373896,NA,0.96,1
"415",32,"BAA_PAA_3_18","coda-onset",NA,"control",75,25,1,731,18,"test_onset",621176,380,"onset_syllable",NA,"AA","LEFT",0,-7,25,-0.28,3.43284658373896,NA,0.96,1
"416",32,"BUH_PUH_3_05","coda-onset",NA,"control",75,21,2,691,5,"test_onset",622864,381,"onset_syllable",NA,"UH","LEFT",0,-16,21,-0.761904761904762,-9.56715341626104,NA,0.96,1
"417",32,"BIH_PIH_1_15","coda-onset",NA,"control",83,16,3,2368,15,"test_onset",626233,382,"onset_syllable",NA,"IH","LEFT",1,-1,16,-0.0625,0.432846583738957,NA,0.96,1
"418",32,"BUH_PUH_3_15","coda-onset",NA,"control",83,21,1,992,15,"test_onset",628225,383,"onset_syllable",NA,"UH","LEFT",1,-6,21,-0.285714285714286,0.432846583738957,NA,0.96,1
"419",32,"BAA_PAA_3_22","coda-onset",NA,"control",75,25,2,749,22,"test_onset",629976,384,"onset_syllable",NA,"AA","LEFT",0,-3,25,-0.12,7.43284658373896,NA,0.96,1
"420",32,"BAH_PAH_3_18","coda-onset",NA,"control",75,23,1,880,18,"test_onset",631856,385,"onset_syllable",NA,"AH","LEFT",0,-5,23,-0.217391304347826,3.43284658373896,NA,0.96,1
"421",32,"BUH_PUH_3_27","coda-onset",NA,"control",83,21,3,731,27,"test_onset",633584,386,"onset_syllable",NA,"UH","LEFT",1,6,9,0.666666666666667,12.432846583739,NA,0.96,1
"422",32,"BIH_PIH_1_30","coda-onset",NA,"control",83,16,3,939,30,"test_onset",635529,387,"onset_syllable",NA,"IH","LEFT",1,14,14,1,15.432846583739,NA,0.96,1
"423",32,"BAH_PAH_3_18","coda-onset",NA,"control",75,23,2,1021,18,"test_onset",637544,388,"onset_syllable",NA,"AH","LEFT",0,-5,23,-0.217391304347826,3.43284658373896,NA,0.96,1
"424",32,"BUH_PUH_3_27","coda-onset",NA,"control",83,21,2,699,27,"test_onset",639240,389,"onset_syllable",NA,"UH","LEFT",1,6,9,0.666666666666667,12.432846583739,NA,0.96,1
"425",32,"BIH_PIH_1_10","coda-onset",NA,"control",75,16,1,861,10,"test_onset",641104,390,"onset_syllable",NA,"IH","LEFT",0,-6,16,-0.375,-4.56715341626104,NA,0.96,1
"426",32,"BUH_PUH_3_15","coda-onset",NA,"control",75,21,2,1109,15,"test_onset",643216,391,"onset_syllable",NA,"UH","LEFT",0,-6,21,-0.285714285714286,0.432846583738957,NA,0.96,1
"427",32,"BAH_PAH_3_22","coda-onset",NA,"control",83,23,2,859,22,"test_onset",645072,392,"onset_syllable",NA,"AH","LEFT",1,-1,23,-0.0434782608695652,7.43284658373896,NA,0.96,1
"428",32,"BIH_PIH_1_30","coda-onset",NA,"control",83,16,2,840,30,"test_onset",646921,393,"onset_syllable",NA,"IH","LEFT",1,14,14,1,15.432846583739,NA,0.96,1
"429",32,"BIH_PIH_1_27","coda-onset",NA,"control",83,16,1,840,27,"test_onset",648768,394,"onset_syllable",NA,"IH","LEFT",1,11,14,0.785714285714286,12.432846583739,NA,0.96,1
"430",32,"BAH_PAH_3_30","coda-onset",NA,"control",83,23,1,920,30,"test_onset",650689,395,"onset_syllable",NA,"AH","LEFT",1,7,7,1,15.432846583739,NA,0.96,1
"431",32,"BAA_PAA_3_24","coda-onset",NA,"control",75,25,2,800,24,"test_onset",652497,396,"onset_syllable",NA,"AA","LEFT",0,-1,25,-0.04,9.43284658373896,NA,0.96,1
"432",32,"BUH_PUH_3_30","coda-onset",NA,"control",83,21,1,880,30,"test_onset",654376,397,"onset_syllable",NA,"UH","LEFT",1,9,9,1,15.432846583739,NA,0.96,1
"433",32,"BAH_PAH_3_24","coda-onset",NA,"control",83,23,1,1029,24,"test_onset",656409,398,"onset_syllable",NA,"AH","LEFT",1,1,7,0.142857142857143,9.43284658373896,NA,0.96,1
"434",32,"BUH_PUH_3_05","coda-onset",NA,"control",75,21,1,811,5,"test_onset",658216,399,"onset_syllable",NA,"UH","LEFT",0,-16,21,-0.761904761904762,-9.56715341626104,NA,0.96,1
"435",32,"BUH_PUH_3_27","coda-onset",NA,"control",83,21,1,829,27,"test_onset",660041,400,"onset_syllable",NA,"UH","LEFT",1,6,9,0.666666666666667,12.432846583739,NA,0.96,1
"436",32,"BAA_PAA_3_00","coda-onset",NA,"control",75,25,2,949,0,"test_onset",661992,401,"onset_syllable",NA,"AA","LEFT",0,-25,25,-1,-14.567153416261,NA,0.96,1
"437",32,"BAH_PAH_3_22","coda-onset",NA,"control",83,23,1,880,22,"test_onset",663881,402,"onset_syllable",NA,"AH","LEFT",1,-1,23,-0.0434782608695652,7.43284658373896,NA,0.96,1
"438",32,"BIH_PIH_1_10","coda-onset",NA,"control",75,16,2,720,10,"test_onset",665609,403,"onset_syllable",NA,"IH","LEFT",0,-6,16,-0.375,-4.56715341626104,NA,0.96,1
"439",32,"BAH_PAH_3_27","coda-onset",NA,"control",83,23,3,749,27,"test_onset",667352,404,"onset_syllable",NA,"AH","LEFT",1,4,7,0.571428571428571,12.432846583739,NA,0.96,1
"440",32,"BUH_PUH_3_30","coda-onset",NA,"control",83,21,2,811,30,"test_onset",669168,405,"onset_syllable",NA,"UH","LEFT",1,9,9,1,15.432846583739,NA,0.96,1
"441",32,"BUH_PUH_3_24","coda-onset",NA,"control",83,21,3,709,24,"test_onset",670880,406,"onset_syllable",NA,"UH","LEFT",1,3,9,0.333333333333333,9.43284658373896,NA,0.96,1
"442",32,"BAH_PAH_3_00","coda-onset",NA,"control",75,23,3,749,0,"test_onset",672641,407,"onset_syllable",NA,"AH","LEFT",0,-23,23,-1,-14.567153416261,NA,0.96,1
"443",32,"BIH_PIH_1_00","coda-onset",NA,"control",75,16,1,880,0,"test_onset",674528,408,"onset_syllable",NA,"IH","LEFT",0,-16,16,-1,-14.567153416261,NA,0.96,1
"444",32,"BUH_PUH_3_18","coda-onset",NA,"control",83,21,2,771,18,"test_onset",676296,409,"onset_syllable",NA,"UH","LEFT",1,-3,21,-0.142857142857143,3.43284658373896,NA,0.96,1
"445",32,"BAA_PAA_3_20","coda-onset",NA,"control",75,25,2,1579,20,"test_onset",678872,410,"onset_syllable",NA,"AA","LEFT",0,-5,25,-0.2,5.43284658373896,NA,0.96,1
"446",32,"BAA_PAA_3_10","coda-onset",NA,"control",75,25,2,701,10,"test_onset",680576,411,"onset_syllable",NA,"AA","LEFT",0,-15,25,-0.6,-4.56715341626104,NA,0.96,1
"447",32,"BAH_PAH_3_15","coda-onset",NA,"control",75,23,3,1000,15,"test_onset",682577,412,"onset_syllable",NA,"AH","LEFT",0,-8,23,-0.347826086956522,0.432846583738957,NA,0.96,1
"448",32,"BAA_PAA_3_18","coda-onset",NA,"control",75,25,3,789,18,"test_onset",684360,413,"onset_syllable",NA,"AA","LEFT",0,-7,25,-0.28,3.43284658373896,NA,0.96,1
"449",32,"BIH_PIH_1_10","coda-onset",NA,"control",75,16,3,691,10,"test_onset",686056,414,"onset_syllable",NA,"IH","LEFT",0,-6,16,-0.375,-4.56715341626104,NA,0.96,1
"450",32,"BUH_PUH_3_24","coda-onset",NA,"control",83,21,1,720,24,"test_onset",687777,415,"onset_syllable",NA,"UH","LEFT",1,3,9,0.333333333333333,9.43284658373896,NA,0.96,1
"451",32,"BAA_PAA_3_22","coda-onset",NA,"control",75,25,3,1171,22,"test_onset",689944,416,"onset_syllable",NA,"AA","LEFT",0,-3,25,-0.12,7.43284658373896,NA,0.96,1
"452",32,"BAH_PAH_3_10","coda-onset",NA,"control",75,23,3,829,10,"test_onset",691776,417,"onset_syllable",NA,"AH","LEFT",0,-13,23,-0.565217391304348,-4.56715341626104,NA,0.96,1
"453",32,"BAA_PAA_3_00","coda-onset",NA,"control",75,25,1,699,0,"test_onset",693472,418,"onset_syllable",NA,"AA","LEFT",0,-25,25,-1,-14.567153416261,NA,0.96,1
"454",32,"BAA_PAA_3_20","coda-onset",NA,"control",75,25,1,651,20,"test_onset",695130,419,"onset_syllable",NA,"AA","LEFT",0,-5,25,-0.2,5.43284658373896,NA,0.96,1
"455",32,"BAA_PAA_3_30","coda-onset",NA,"control",83,25,1,749,30,"test_onset",696888,420,"onset_syllable",NA,"AA","LEFT",1,5,5,1,15.432846583739,NA,0.96,1
"456",32,"BUH_PUH_3_10","coda-onset",NA,"control",75,21,2,760,10,"test_onset",698641,421,"onset_syllable",NA,"UH","LEFT",0,-11,21,-0.523809523809524,-4.56715341626104,NA,0.96,1
"457",32,"BAH_PAH_3_24","coda-onset",NA,"control",83,23,3,909,24,"test_onset",700552,422,"onset_syllable",NA,"AH","LEFT",1,1,7,0.142857142857143,9.43284658373896,NA,0.96,1
"458",32,"BAA_PAA_3_15","coda-onset",NA,"control",75,25,1,731,15,"test_onset",702288,423,"onset_syllable",NA,"AA","LEFT",0,-10,25,-0.4,0.432846583738957,NA,0.96,1
"459",32,"BAA_PAA_3_00","coda-onset",NA,"control",75,25,3,781,0,"test_onset",704064,424,"onset_syllable",NA,"AA","LEFT",0,-25,25,-1,-14.567153416261,NA,0.96,1
"460",32,"BUH_PUH_3_30","coda-onset",NA,"control",83,21,3,659,30,"test_onset",705728,425,"onset_syllable",NA,"UH","LEFT",1,9,9,1,15.432846583739,NA,0.96,1
"461",32,"BAH_PAH_3_30","coda-onset",NA,"control",83,23,3,909,30,"test_onset",707633,426,"onset_syllable",NA,"AH","LEFT",1,7,7,1,15.432846583739,NA,0.96,1
"462",32,"BIH_PIH_1_27","coda-onset",NA,"control",83,16,3,1032,27,"test_onset",709664,427,"onset_syllable",NA,"IH","LEFT",1,11,14,0.785714285714286,12.432846583739,NA,0.96,1
"463",32,"BAA_PAA_3_05","coda-onset",NA,"control",75,25,3,680,5,"test_onset",711344,428,"onset_syllable",NA,"AA","LEFT",0,-20,25,-0.8,-9.56715341626104,NA,0.96,1
"464",32,"BAA_PAA_3_15","coda-onset",NA,"control",75,25,2,659,15,"test_onset",713008,429,"onset_syllable",NA,"AA","LEFT",0,-10,25,-0.4,0.432846583738957,NA,0.96,1
"465",32,"BIH_PIH_1_05","coda-onset",NA,"control",83,16,2,720,5,"test_onset",714728,430,"onset_syllable",NA,"IH","LEFT",1,-11,16,-0.6875,-9.56715341626104,NA,0.96,1
"466",32,"BIH_PIH_1_00","coda-onset",NA,"control",75,16,2,669,0,"test_onset",716400,431,"onset_syllable",NA,"IH","LEFT",0,-16,16,-1,-14.567153416261,NA,0.96,1
"467",32,"BAA_PAA_3_10","coda-onset",NA,"control",75,25,3,800,10,"test_onset",718208,432,"onset_syllable",NA,"AA","LEFT",0,-15,25,-0.6,-4.56715341626104,NA,0.96,1
"468",32,"BIH_PIH_1_24","coda-onset",NA,"control",83,16,2,1059,24,"test_onset",720281,433,"onset_syllable",NA,"IH","LEFT",1,8,14,0.571428571428571,9.43284658373896,NA,0.96,1
"469",32,"BIH_PIH_1_20","coda-onset",NA,"control",83,16,1,901,20,"test_onset",722184,434,"onset_syllable",NA,"IH","LEFT",1,4,14,0.285714285714286,5.43284658373896,NA,0.96,1
"470",32,"BAA_PAA_3_24","coda-onset",NA,"control",83,25,3,1008,24,"test_onset",724193,435,"onset_syllable",NA,"AA","LEFT",1,-1,25,-0.04,9.43284658373896,NA,0.96,1
"471",32,"BUH_PUH_3_20","coda-onset",NA,"control",83,21,2,800,20,"test_onset",725992,436,"onset_syllable",NA,"UH","LEFT",1,-1,21,-0.0476190476190476,5.43284658373896,NA,0.96,1
"472",32,"BAA_PAA_3_10","coda-onset",NA,"control",75,25,1,1240,10,"test_onset",728240,437,"onset_syllable",NA,"AA","LEFT",0,-15,25,-0.6,-4.56715341626104,NA,0.96,1
"473",32,"BAH_PAH_3_10","coda-onset",NA,"control",75,23,2,829,10,"test_onset",730085,438,"onset_syllable",NA,"AH","LEFT",0,-13,23,-0.565217391304348,-4.56715341626104,NA,0.96,1
"474",32,"BIH_PIH_1_20","coda-onset",NA,"control",83,16,2,760,20,"test_onset",731849,439,"onset_syllable",NA,"IH","LEFT",1,4,14,0.285714285714286,5.43284658373896,NA,0.96,1
"475",32,"BIH_PIH_1_24","coda-onset",NA,"control",83,16,1,779,24,"test_onset",733641,440,"onset_syllable",NA,"IH","LEFT",1,8,14,0.571428571428571,9.43284658373896,NA,0.96,1
"476",32,"BUH_PUH_3_24","coda-onset",NA,"control",83,21,2,840,24,"test_onset",735488,441,"onset_syllable",NA,"UH","LEFT",1,3,9,0.333333333333333,9.43284658373896,NA,0.96,1
"477",32,"BUH_PUH_3_00","coda-onset",NA,"control",75,21,1,880,0,"test_onset",737368,442,"onset_syllable",NA,"UH","LEFT",0,-21,21,-1,-14.567153416261,NA,0.96,1
"478",32,"BAA_PAA_3_15","coda-onset",NA,"control",75,25,3,771,15,"test_onset",739136,443,"onset_syllable",NA,"AA","LEFT",0,-10,25,-0.4,0.432846583738957,NA,0.96,1
"479",32,"BAH_PAH_3_00","coda-onset",NA,"control",75,23,1,699,0,"test_onset",740840,444,"onset_syllable",NA,"AH","LEFT",0,-23,23,-1,-14.567153416261,NA,0.96,1
"480",38,"IHB_IHP_5_07","coda-onset",NA,"control",83,7,1,2853,7,"test_coda",403936,204,"coda_syllable",NA,"IH","LEFT",1,0,7,0,-7.56715341626104,NA,0.98989898989899,0.979166666666667
"481",38,"UHB_UHP_5_20","coda-onset",NA,"control",83,8,3,2603,20,"test_coda",407547,205,"coda_syllable",NA,"UH","LEFT",1,12,22,0.545454545454545,5.43284658373896,NA,0.98989898989899,0.979166666666667
"482",38,"AAB_AAP_1_09","coda-onset",NA,"control",75,11,3,3072,9,"test_coda",411626,206,"coda_syllable",NA,"AA","LEFT",0,-2,11,-0.181818181818182,-5.56715341626104,NA,0.98989898989899,0.979166666666667
"483",38,"UHB_UHP_5_04","coda-onset",NA,"control",75,8,1,1957,4,"test_coda",414591,207,"coda_syllable",NA,"UH","LEFT",0,-4,8,-0.5,-10.567153416261,NA,0.98989898989899,0.979166666666667
"484",38,"AHB_AHP_3_00","coda-onset",NA,"control",75,14,1,1077,0,"test_coda",416668,208,"coda_syllable",NA,"AH","LEFT",0,-14,14,-1,-14.567153416261,NA,0.98989898989899,0.979166666666667
"485",38,"AHB_AHP_3_04","coda-onset",NA,"control",75,14,2,821,4,"test_coda",418496,209,"coda_syllable",NA,"AH","LEFT",0,-10,14,-0.714285714285714,-10.567153416261,NA,0.98989898989899,0.979166666666667
"486",38,"AAB_AAP_1_11","coda-onset",NA,"control",83,11,2,1200,11,"test_coda",420700,210,"coda_syllable",NA,"AA","LEFT",1,0,11,0,-3.56715341626104,NA,0.98989898989899,0.979166666666667
"487",38,"UHB_UHP_5_09","coda-onset",NA,"control",75,8,2,1061,9,"test_coda",422768,211,"coda_syllable",NA,"UH","LEFT",0,1,22,0.0454545454545455,-5.56715341626104,NA,0.98989898989899,0.979166666666667
"488",38,"AHB_AHP_3_00","coda-onset",NA,"control",75,14,3,1227,0,"test_coda",424999,212,"coda_syllable",NA,"AH","LEFT",0,-14,14,-1,-14.567153416261,NA,0.98989898989899,0.979166666666667
"489",38,"IHB_IHP_5_09","coda-onset",NA,"control",83,7,2,1280,9,"test_coda",427284,213,"coda_syllable",NA,"IH","LEFT",1,2,23,0.0869565217391304,-5.56715341626104,NA,0.98989898989899,0.979166666666667
"490",38,"AAB_AAP_1_13","coda-onset",NA,"control",83,11,2,1339,13,"test_coda",429628,214,"coda_syllable",NA,"AA","LEFT",1,2,19,0.105263157894737,-1.56715341626104,NA,0.98989898989899,0.979166666666667
"491",38,"AHB_AHP_3_09","coda-onset",NA,"control",75,14,2,1003,9,"test_coda",431635,215,"coda_syllable",NA,"AH","LEFT",0,-5,14,-0.357142857142857,-5.56715341626104,NA,0.98989898989899,0.979166666666667
"492",38,"AHB_AHP_3_04","coda-onset",NA,"control",75,14,3,667,4,"test_coda",433303,216,"coda_syllable",NA,"AH","LEFT",0,-10,14,-0.714285714285714,-10.567153416261,NA,0.98989898989899,0.979166666666667
"493",38,"UHB_UHP_5_16","coda-onset",NA,"control",83,8,1,965,16,"test_coda",435270,217,"coda_syllable",NA,"UH","LEFT",1,8,22,0.363636363636364,1.43284658373896,NA,0.98989898989899,0.979166666666667
"494",38,"IHB_IHP_5_25","coda-onset",NA,"control",83,7,3,1360,25,"test_coda",437637,218,"coda_syllable",NA,"IH","LEFT",1,18,23,0.782608695652174,10.432846583739,NA,0.98989898989899,0.979166666666667
"495",38,"UHB_UHP_5_30","coda-onset",NA,"control",83,8,3,1568,30,"test_coda",440211,219,"coda_syllable",NA,"UH","LEFT",1,22,22,1,15.432846583739,NA,0.98989898989899,0.979166666666667
"496",38,"UHB_UHP_5_07","coda-onset",NA,"control",75,8,1,891,7,"test_coda",442108,220,"coda_syllable",NA,"UH","LEFT",0,-1,8,-0.125,-7.56715341626104,NA,0.98989898989899,0.979166666666667
"497",38,"AHB_AHP_3_11","coda-onset",NA,"control",75,14,1,827,11,"test_coda",443938,221,"coda_syllable",NA,"AH","LEFT",0,-3,14,-0.214285714285714,-3.56715341626104,NA,0.98989898989899,0.979166666666667
"498",38,"UHB_UHP_5_13","coda-onset",NA,"control",75,8,3,2693,13,"test_coda",447633,222,"coda_syllable",NA,"UH","LEFT",0,5,22,0.227272727272727,-1.56715341626104,NA,0.98989898989899,0.979166666666667
"499",38,"IHB_IHP_5_04","coda-onset",NA,"control",75,7,1,2320,4,"test_coda",450955,223,"coda_syllable",NA,"IH","LEFT",0,-3,7,-0.428571428571429,-10.567153416261,NA,0.98989898989899,0.979166666666667
"500",38,"AHB_AHP_3_30","coda-onset",NA,"control",83,14,2,891,30,"test_coda",452848,224,"coda_syllable",NA,"AH","LEFT",1,16,16,1,15.432846583739,NA,0.98989898989899,0.979166666666667
"501",38,"UHB_UHP_5_30","coda-onset",NA,"control",83,8,2,1376,30,"test_coda",455230,225,"coda_syllable",NA,"UH","LEFT",1,22,22,1,15.432846583739,NA,0.98989898989899,0.979166666666667
"502",38,"AAB_AAP_1_25","coda-onset",NA,"control",83,11,3,1531,25,"test_coda",457765,226,"coda_syllable",NA,"AA","LEFT",1,14,19,0.736842105263158,10.432846583739,NA,0.98989898989899,0.979166666666667
"503",38,"AAB_AAP_1_30","coda-onset",NA,"control",83,11,1,1045,30,"test_coda",459816,227,"coda_syllable",NA,"AA","LEFT",1,19,19,1,15.432846583739,NA,0.98989898989899,0.979166666666667
"504",38,"UHB_UHP_5_07","coda-onset",NA,"control",75,8,2,795,7,"test_coda",461619,228,"coda_syllable",NA,"UH","LEFT",0,-1,8,-0.125,-7.56715341626104,NA,0.98989898989899,0.979166666666667
"505",38,"UHB_UHP_5_13","coda-onset",NA,"control",75,8,1,757,13,"test_coda",463381,229,"coda_syllable",NA,"UH","LEFT",0,5,22,0.227272727272727,-1.56715341626104,NA,0.98989898989899,0.979166666666667
"506",38,"AHB_AHP_3_30","coda-onset",NA,"control",83,14,1,821,30,"test_coda",465208,230,"coda_syllable",NA,"AH","LEFT",1,16,16,1,15.432846583739,NA,0.98989898989899,0.979166666666667
"507",38,"IHB_IHP_5_25","coda-onset",NA,"control",83,7,2,1712,25,"test_coda",467928,231,"coda_syllable",NA,"IH","LEFT",1,18,23,0.782608695652174,10.432846583739,NA,0.98989898989899,0.979166666666667
"508",38,"IHB_IHP_5_16","coda-onset",NA,"control",83,7,2,1387,16,"test_coda",470314,232,"coda_syllable",NA,"IH","LEFT",1,9,23,0.391304347826087,1.43284658373896,NA,0.98989898989899,0.979166666666667
"509",38,"UHB_UHP_5_09","coda-onset",NA,"control",75,8,1,960,9,"test_coda",472279,233,"coda_syllable",NA,"UH","LEFT",0,1,22,0.0454545454545455,-5.56715341626104,NA,0.98989898989899,0.979166666666667
"510",38,"AHB_AHP_3_07","coda-onset",NA,"control",75,14,3,752,7,"test_coda",474035,234,"coda_syllable",NA,"AH","LEFT",0,-7,14,-0.5,-7.56715341626104,NA,0.98989898989899,0.979166666666667
"511",38,"AHB_AHP_3_20","coda-onset",NA,"control",75,14,2,2448,20,"test_coda",477491,235,"coda_syllable",NA,"AH","LEFT",0,6,16,0.375,5.43284658373896,NA,0.98989898989899,0.979166666666667
"512",38,"IHB_IHP_5_07","coda-onset",NA,"control",83,7,3,1429,7,"test_coda",479926,236,"coda_syllable",NA,"IH","LEFT",1,0,7,0,-7.56715341626104,NA,0.98989898989899,0.979166666666667
"513",38,"IHB_IHP_5_13","coda-onset",NA,"control",83,7,1,928,13,"test_coda",481857,237,"coda_syllable",NA,"IH","LEFT",1,6,23,0.260869565217391,-1.56715341626104,NA,0.98989898989899,0.979166666666667
"514",38,"IHB_IHP_5_20","coda-onset",NA,"control",83,7,2,1125,20,"test_coda",483990,238,"coda_syllable",NA,"IH","LEFT",1,13,23,0.565217391304348,5.43284658373896,NA,0.98989898989899,0.979166666666667
"515",38,"AAB_AAP_1_20","coda-onset",NA,"control",83,11,3,1653,20,"test_coda",486652,239,"coda_syllable",NA,"AA","LEFT",1,9,19,0.473684210526316,5.43284658373896,NA,0.98989898989899,0.979166666666667
"516",38,"UHB_UHP_5_11","coda-onset",NA,"control",75,8,2,1648,11,"test_coda",489304,240,"coda_syllable",NA,"UH","LEFT",0,3,22,0.136363636363636,-3.56715341626104,NA,0.98989898989899,0.979166666666667
"517",38,"AAB_AAP_1_30","coda-onset",NA,"control",83,11,3,2667,30,"test_coda",492975,241,"coda_syllable",NA,"AA","LEFT",1,19,19,1,15.432846583739,NA,0.98989898989899,0.979166666666667
"518",38,"AHB_AHP_3_11","coda-onset",NA,"control",75,14,2,1381,11,"test_coda",495360,242,"coda_syllable",NA,"AH","LEFT",0,-3,14,-0.214285714285714,-3.56715341626104,NA,0.98989898989899,0.979166666666667
"519",38,"UHB_UHP_5_04","coda-onset",NA,"control",75,8,3,1493,4,"test_coda",497858,243,"coda_syllable",NA,"UH","LEFT",0,-4,8,-0.5,-10.567153416261,NA,0.98989898989899,0.979166666666667
"520",38,"AAB_AAP_1_25","coda-onset",NA,"control",83,11,1,1125,25,"test_coda",499989,244,"coda_syllable",NA,"AA","LEFT",1,14,19,0.736842105263158,10.432846583739,NA,0.98989898989899,0.979166666666667
"521",38,"IHB_IHP_5_09","coda-onset",NA,"control",75,7,3,1509,9,"test_coda",502504,245,"coda_syllable",NA,"IH","LEFT",0,2,23,0.0869565217391304,-5.56715341626104,NA,0.98989898989899,0.979166666666667
"522",38,"AAB_AAP_1_00","coda-onset",NA,"control",75,11,3,1264,0,"test_coda",504775,246,"coda_syllable",NA,"AA","LEFT",0,-11,11,-1,-14.567153416261,NA,0.98989898989899,0.979166666666667
"523",38,"IHB_IHP_5_30","coda-onset",NA,"control",83,7,2,1243,30,"test_coda",507024,247,"coda_syllable",NA,"IH","LEFT",1,23,23,1,15.432846583739,NA,0.98989898989899,0.979166666666667
"524",38,"AAB_AAP_1_11","coda-onset",NA,"control",83,11,1,1275,11,"test_coda",509308,248,"coda_syllable",NA,"AA","LEFT",1,0,11,0,-3.56715341626104,NA,0.98989898989899,0.979166666666667
"525",38,"AHB_AHP_3_00","coda-onset",NA,"control",75,14,2,1317,0,"test_coda",511631,249,"coda_syllable",NA,"AH","LEFT",0,-14,14,-1,-14.567153416261,NA,0.98989898989899,0.979166666666667
"526",38,"AAB_AAP_1_16","coda-onset",NA,"control",83,11,3,1051,16,"test_coda",513684,250,"coda_syllable",NA,"AA","LEFT",1,5,19,0.263157894736842,1.43284658373896,NA,0.98989898989899,0.979166666666667
"527",38,"UHB_UHP_5_04","coda-onset",NA,"control",75,8,2,1323,4,"test_coda",516012,251,"coda_syllable",NA,"UH","LEFT",0,-4,8,-0.5,-10.567153416261,NA,0.98989898989899,0.979166666666667
"528",38,"IHB_IHP_5_25","coda-onset",NA,"control",83,7,1,1221,25,"test_coda",518231,252,"coda_syllable",NA,"IH","LEFT",1,18,23,0.782608695652174,10.432846583739,NA,0.98989898989899,0.979166666666667
"529",38,"UHB_UHP_5_25","coda-onset",NA,"control",83,8,2,1275,25,"test_coda",520513,253,"coda_syllable",NA,"UH","LEFT",1,17,22,0.772727272727273,10.432846583739,NA,0.98989898989899,0.979166666666667
"530",38,"AAB_AAP_1_20","coda-onset",NA,"control",83,11,2,1125,20,"test_coda",522643,254,"coda_syllable",NA,"AA","LEFT",1,9,19,0.473684210526316,5.43284658373896,NA,0.98989898989899,0.979166666666667
"531",38,"UHB_UHP_5_16","coda-onset",NA,"control",75,8,3,1056,16,"test_coda",524705,255,"coda_syllable",NA,"UH","LEFT",0,8,22,0.363636363636364,1.43284658373896,NA,0.98989898989899,0.979166666666667
"532",38,"IHB_IHP_5_00","coda-onset",NA,"control",75,7,2,1029,0,"test_coda",526741,256,"coda_syllable",NA,"IH","LEFT",0,-7,7,-1,-14.567153416261,NA,0.98989898989899,0.979166666666667
"533",38,"IHB_IHP_5_30","coda-onset",NA,"control",83,7,3,1088,30,"test_coda",528838,257,"coda_syllable",NA,"IH","LEFT",1,23,23,1,15.432846583739,NA,0.98989898989899,0.979166666666667
"534",38,"AHB_AHP_3_20","coda-onset",NA,"control",83,14,1,1317,20,"test_coda",531156,258,"coda_syllable",NA,"AH","LEFT",1,6,16,0.375,5.43284658373896,NA,0.98989898989899,0.979166666666667
"535",38,"AAB_AAP_1_07","coda-onset",NA,"control",75,11,3,816,7,"test_coda",532977,259,"coda_syllable",NA,"AA","LEFT",0,-4,11,-0.363636363636364,-7.56715341626104,NA,0.98989898989899,0.979166666666667
"536",38,"AAB_AAP_1_16","coda-onset",NA,"control",83,11,2,896,16,"test_coda",534879,260,"coda_syllable",NA,"AA","LEFT",1,5,19,0.263157894736842,1.43284658373896,NA,0.98989898989899,0.979166666666667
"537",38,"AAB_AAP_1_11","coda-onset",NA,"control",75,11,3,1173,11,"test_coda",537059,261,"coda_syllable",NA,"AA","LEFT",0,0,11,0,-3.56715341626104,NA,0.98989898989899,0.979166666666667
"538",38,"AAB_AAP_1_13","coda-onset",NA,"control",83,11,1,955,13,"test_coda",539016,262,"coda_syllable",NA,"AA","LEFT",1,2,19,0.105263157894737,-1.56715341626104,NA,0.98989898989899,0.979166666666667
"539",38,"UHB_UHP_5_20","coda-onset",NA,"control",83,8,1,1173,20,"test_coda",541191,263,"coda_syllable",NA,"UH","LEFT",1,12,22,0.545454545454545,5.43284658373896,NA,0.98989898989899,0.979166666666667
"540",38,"AHB_AHP_3_25","coda-onset",NA,"control",83,14,1,1808,25,"test_coda",544003,264,"coda_syllable",NA,"AH","LEFT",1,11,16,0.6875,10.432846583739,NA,0.98989898989899,0.979166666666667
"541",38,"AHB_AHP_3_16","coda-onset",NA,"control",75,14,1,699,16,"test_coda",545704,265,"coda_syllable",NA,"AH","LEFT",0,2,16,0.125,1.43284658373896,NA,0.98989898989899,0.979166666666667
"542",38,"AHB_AHP_3_07","coda-onset",NA,"control",75,14,2,1349,7,"test_coda",548060,266,"coda_syllable",NA,"AH","LEFT",0,-7,14,-0.5,-7.56715341626104,NA,0.98989898989899,0.979166666666667
"543",38,"UHB_UHP_5_00","coda-onset",NA,"control",75,8,3,1760,0,"test_coda",550826,267,"coda_syllable",NA,"UH","LEFT",0,-8,8,-1,-14.567153416261,NA,0.98989898989899,0.979166666666667
"544",38,"UHB_UHP_5_20","coda-onset",NA,"control",83,8,2,955,20,"test_coda",552787,268,"coda_syllable",NA,"UH","LEFT",1,12,22,0.545454545454545,5.43284658373896,NA,0.98989898989899,0.979166666666667
"545",38,"AHB_AHP_3_09","coda-onset",NA,"control",75,14,3,1147,9,"test_coda",554938,269,"coda_syllable",NA,"AH","LEFT",0,-5,14,-0.357142857142857,-5.56715341626104,NA,0.98989898989899,0.979166666666667
"546",38,"AHB_AHP_3_11","coda-onset",NA,"control",75,14,3,1019,11,"test_coda",556959,270,"coda_syllable",NA,"AH","LEFT",0,-3,14,-0.214285714285714,-3.56715341626104,NA,0.98989898989899,0.979166666666667
"547",38,"IHB_IHP_5_07","coda-onset",NA,"control",83,7,2,1232,7,"test_coda",559193,271,"coda_syllable",NA,"IH","LEFT",1,0,7,0,-7.56715341626104,NA,0.98989898989899,0.979166666666667
"548",38,"AHB_AHP_3_04","coda-onset",NA,"control",75,14,1,1605,4,"test_coda",561803,272,"coda_syllable",NA,"AH","LEFT",0,-10,14,-0.714285714285714,-10.567153416261,NA,0.98989898989899,0.979166666666667
"549",38,"IHB_IHP_5_13","coda-onset",NA,"control",83,7,3,955,13,"test_coda",563763,273,"coda_syllable",NA,"IH","LEFT",1,6,23,0.260869565217391,-1.56715341626104,NA,0.98989898989899,0.979166666666667
"550",38,"AAB_AAP_1_16","coda-onset",NA,"control",83,11,1,2101,16,"test_coda",566868,274,"coda_syllable",NA,"AA","LEFT",1,5,19,0.263157894736842,1.43284658373896,NA,0.98989898989899,0.979166666666667
"551",38,"IHB_IHP_5_20","coda-onset",NA,"control",83,7,3,2176,20,"test_coda",570046,275,"coda_syllable",NA,"IH","LEFT",1,13,23,0.565217391304348,5.43284658373896,NA,0.98989898989899,0.979166666666667
"552",38,"AHB_AHP_3_09","coda-onset",NA,"control",75,14,1,1403,9,"test_coda",572454,276,"coda_syllable",NA,"AH","LEFT",0,-5,14,-0.357142857142857,-5.56715341626104,NA,0.98989898989899,0.979166666666667
"553",38,"IHB_IHP_5_04","coda-onset",NA,"control",75,7,3,1717,4,"test_coda",575177,277,"coda_syllable",NA,"IH","LEFT",0,-3,7,-0.428571428571429,-10.567153416261,NA,0.98989898989899,0.979166666666667
"554",38,"IHB_IHP_5_30","coda-onset",NA,"control",83,7,1,1147,30,"test_coda",577331,278,"coda_syllable",NA,"IH","LEFT",1,23,23,1,15.432846583739,NA,0.98989898989899,0.979166666666667
"555",38,"IHB_IHP_5_09","coda-onset",NA,"control",75,7,1,2139,9,"test_coda",580470,279,"coda_syllable",NA,"IH","LEFT",0,2,23,0.0869565217391304,-5.56715341626104,NA,0.98989898989899,0.979166666666667
"556",38,"UHB_UHP_5_07","coda-onset",NA,"control",83,8,3,1968,7,"test_coda",583443,280,"coda_syllable",NA,"UH","LEFT",1,-1,8,-0.125,-7.56715341626104,NA,0.98989898989899,0.979166666666667
"557",38,"AAB_AAP_1_00","coda-onset",NA,"control",75,11,1,1627,0,"test_coda",586076,281,"coda_syllable",NA,"AA","LEFT",0,-11,11,-1,-14.567153416261,NA,0.98989898989899,0.979166666666667
"558",38,"AAB_AAP_1_09","coda-onset",NA,"control",83,11,1,1195,9,"test_coda",588281,282,"coda_syllable",NA,"AA","LEFT",1,-2,11,-0.181818181818182,-5.56715341626104,NA,0.98989898989899,0.979166666666667
"559",38,"AAB_AAP_1_04","coda-onset",NA,"control",75,11,1,1211,4,"test_coda",590490,283,"coda_syllable",NA,"AA","LEFT",0,-7,11,-0.636363636363636,-10.567153416261,NA,0.98989898989899,0.979166666666667
"560",38,"AHB_AHP_3_13","coda-onset",NA,"control",75,14,3,869,13,"test_coda",592362,284,"coda_syllable",NA,"AH","LEFT",0,-1,14,-0.0714285714285714,-1.56715341626104,NA,0.98989898989899,0.979166666666667
"561",38,"AHB_AHP_3_16","coda-onset",NA,"control",75,14,3,1125,16,"test_coda",594492,285,"coda_syllable",NA,"AH","LEFT",0,2,16,0.125,1.43284658373896,NA,0.98989898989899,0.979166666666667
"562",38,"IHB_IHP_5_00","coda-onset",NA,"control",75,7,1,1445,0,"test_coda",596939,286,"coda_syllable",NA,"IH","LEFT",0,-7,7,-1,-14.567153416261,NA,0.98989898989899,0.979166666666667
